[Datalogging: Item = 0 | Slave index = 0 (Execute 1) | Experiment index = 0 (Read All (Barebone))]
Timestamp,Timestamp (ms),accel.x,accel.y,accel.z,gyro.x,gyro.y,gyro.z,strain,analog_0,analog_1,current,enc-disp,enc-cont,enc-comm,VB,VG,Temp,Status1,Status2
Mon Sep 26 15:19:21 2016,0,-4006,610,7006,39,196,-88,15621,1027,982,438,0,0,0,199,206,136,2,1
Mon Sep 26 15:19:21 2016,9,-3924,562,7076,43,269,-99,15599,1027,982,444,0,0,0,199,206,136,2,1
Mon Sep 26 15:19:21 2016,19,-3892,526,7008,42,333,-98,15591,1026,981,440,0,0,0,199,206,136,2,1
Mon Sep 26 15:19:21 2016,30,-4098,596,7002,55,377,-97,15593,1027,982,441,0,0,0,199,206,136,2,1
Mon Sep 26 15:19:21 2016,39,-4066,566,6954,53,394,-98,15555,1026,982,438,0,0,0,199,206,135,2,1
Mon Sep 26 15:19:21 2016,49,-4128,586,6950,42,410,-88,15576,1027,984,438,0,0,0,199,206,136,2,1
Mon Sep 26 15:19:21 2016,59,-3984,562,6918,45,415,-91,15572,1027,983,446,0,0,0,199,206,136,2,1
Mon Sep 26 15:19:21 2016,69,-4006,414,7164,100,521,-93,15561,1028,984,438,0,0,0,199,206,136,2,1
Mon Sep 26 15:19:21 2016,79,-3988,206,7074,172,584,-160,15599,1028,983,441,0,0,0,199,206,136,2,1
Mon Sep 26 15:19:21 2016,90,-3644,748,6814,146,753,-49,15697,1030,985,439,0,0,0,199,206,136,2,1
Mon Sep 26 15:19:21 2016,99,-4334,314,7356,217,954,-24,15649,1029,985,440,0,0,0,199,206,136,2,1
Mon Sep 26 15:19:21 2016,109,-4348,730,6930,311,1024,-52,15600,1031,987,439,0,0,0,199,206,136,2,1
Mon Sep 26 15:19:21 2016,119,-4182,796,7390,341,1179,-172,15633,1031,986,440,0,0,0,199,206,136,2,1
Mon Sep 26 15:19:21 2016,130,-4142,1064,6918,341,1285,-447,15594,1033,986,440,0,0,0,199,206,136,2,1
Mon Sep 26 15:19:21 2016,140,-4024,1416,7584,377,1390,-699,15625,1032,985,440,0,0,0,199,206,136,2,1
Mon Sep 26 15:19:21 2016,150,-3918,1572,7408,126,1561,-1143,15637,1033,984,441,0,0,0,199,206,136,2,1
Mon Sep 26 15:19:21 2016,160,-3808,636,7950,201,1472,-1428,15679,1033,980,439,0,0,0,199,206,136,2,1
Mon Sep 26 15:19:21 2016,170,-3664,586,7784,271,1383,-1827,15748,1032,980,440,0,0,0,199,206,136,2,1
Mon Sep 26 15:19:21 2016,180,-2330,1960,9076,144,1096,-1890,15687,1030,977,440,0,0,0,199,206,136,2,1
Mon Sep 26 15:19:21 2016,190,-1526,2538,9450,-204,624,-1868,15755,1030,977,442,0,0,0,199,206,136,2,1
Mon Sep 26 15:19:21 2016,200,-102,2946,9848,-454,483,-1722,15698,1028,975,441,0,0,0,199,206,136,2,1
Mon Sep 26 15:19:21 2016,210,-1370,2818,10790,-303,378,-1169,15712,1028,976,441,0,0,0,199,206,136,2,1
Mon Sep 26 15:19:21 2016,220,-1366,3242,10774,-54,108,-792,15702,1027,976,438,0,0,0,199,206,136,2,1
Mon Sep 26 15:19:21 2016,229,-288,3618,10192,-58,-380,-425,15705,1026,976,439,0,0,0,199,206,136,2,1
Mon Sep 26 15:19:21 2016,239,602,3862,9814,-186,-526,-292,15693,1024,975,439,0,0,0,199,206,136,2,1
Mon Sep 26 15:19:21 2016,250,504,3582,10214,-352,-737,-125,15694,1025,975,442,0,0,0,199,206,136,2,1
Mon Sep 26 15:19:21 2016,260,400,3214,10330,-324,-938,5,15707,1025,974,438,0,0,0,199,206,136,2,1
Mon Sep 26 15:19:21 2016,270,278,2836,10342,-30,-1299,310,15646,1025,974,441,0,0,0,199,206,136,2,1
Mon Sep 26 15:19:21 2016,280,24,2490,10342,257,-1584,557,15678,1024,974,441,0,0,0,199,206,136,2,1
Mon Sep 26 15:19:21 2016,290,-144,2562,10032,588,-1953,920,15686,1025,972,442,0,0,0,199,206,136,2,1
Mon Sep 26 15:19:21 2016,300,-120,2702,9538,622,-2090,1121,15683,1022,973,442,0,0,0,199,206,135,2,1
Mon Sep 26 15:19:21 2016,310,-246,2210,9302,476,-2209,1397,15683,1023,973,440,0,0,0,199,206,136,2,1
Mon Sep 26 15:19:21 2016,320,-886,2398,9308,380,-2190,1467,15728,1022,973,440,0,0,0,199,206,135,2,1
Mon Sep 26 15:19:21 2016,329,-1556,2228,9496,394,-2260,1610,15628,1022,971,439,0,0,0,199,206,135,2,1
Mon Sep 26 15:19:21 2016,339,-2110,2266,9214,410,-2359,1669,15612,1022,973,439,0,0,0,199,206,136,2,1
Mon Sep 26 15:19:21 2016,349,-1988,2330,8710,376,-2415,1726,15686,1022,972,438,0,0,0,199,206,136,2,1
Mon Sep 26 15:19:21 2016,359,-1798,2404,8034,316,-2348,1724,15655,1021,972,441,0,0,0,199,206,135,2,1
Mon Sep 26 15:19:21 2016,369,-1922,2440,7848,319,-2125,1729,15611,1021,971,439,0,0,0,199,206,135,2,1
Mon Sep 26 15:19:21 2016,379,-3228,2310,8662,459,-2053,1749,15630,1021,971,448,0,0,0,0,199,0,0,199
Mon Sep 26 15:19:21 2016,389,-3962,2716,9046,617,-2230,1862,15604,1021,971,438,0,0,0,199,206,135,2,1
Mon Sep 26 15:19:21 2016,399,-3620,3264,8740,567,-2387,1905,15654,1021,970,438,0,0,0,199,206,135,2,1
Mon Sep 26 15:19:21 2016,409,-3070,3310,8154,329,-2412,1947,15595,1021,970,441,0,0,0,199,206,136,2,1
Mon Sep 26 15:19:21 2016,419,-2692,3264,7890,158,-2318,1988,15607,1020,971,440,0,0,0,199,206,136,2,1
Mon Sep 26 15:19:21 2016,429,-2894,3046,8112,29,-2194,2071,15605,1019,970,440,0,0,0,199,206,136,2,1
Mon Sep 26 15:19:21 2016,439,-3352,2774,8436,68,-2178,2133,15657,1020,970,440,0,0,0,199,206,136,2,1
Mon Sep 26 15:19:21 2016,449,-3344,2654,8402,161,-2258,2204,15697,1020,969,441,0,0,0,199,206,136,2,1
Mon Sep 26 15:19:21 2016,459,-2848,2444,7956,190,-2283,2220,15687,1019,969,442,0,0,0,199,206,136,2,1
Mon Sep 26 15:19:21 2016,469,-2480,2362,7564,207,-2158,2184,15636,1018,968,439,0,0,0,199,206,136,2,1
Mon Sep 26 15:19:21 2016,479,-2142,2020,7364,214,-2022,2117,15609,1018,968,438,0,0,0,199,206,136,2,1
Mon Sep 26 15:19:21 2016,489,-2420,1846,7714,375,-1844,2052,15585,1017,967,442,0,0,0,199,206,136,2,1
Mon Sep 26 15:19:21 2016,499,-3480,1862,8620,505,-1877,1987,15614,1018,969,442,0,0,0,199,206,136,2,1
Mon Sep 26 15:19:21 2016,509,-3520,2000,8792,567,-2125,1875,15612,1017,967,438,0,0,0,199,206,136,2,1
Mon Sep 26 15:19:21 2016,519,-2680,2204,8190,507,-2231,1759,15548,1017,968,437,0,0,0,199,206,136,2,1
Mon Sep 26 15:19:21 2016,529,-1918,1996,7746,454,-2193,1619,15565,1016,966,445,0,0,0,199,206,135,2,1
Mon Sep 26 15:19:21 2016,540,-1488,1684,7610,539,-2075,1576,15577,1016,968,438,0,0,0,199,206,136,2,1
Mon Sep 26 15:19:21 2016,550,-1820,1578,8018,742,-1960,1573,15565,1016,968,441,0,0,0,199,206,135,2,1
Mon Sep 26 15:19:21 2016,560,-1960,1652,8190,858,-1983,1555,15559,1016,967,439,0,0,0,199,206,136,2,1
Mon Sep 26 15:19:21 2016,570,-1904,1610,8224,852,-2050,1464,15546,1016,967,442,0,0,0,199,206,135,2,1
Mon Sep 26 15:19:21 2016,579,-1742,1364,8088,824,-2081,1360,15557,1016,968,441,0,0,0,199,206,135,2,1
Mon Sep 26 15:19:21 2016,589,-1396,1016,7680,813,-2124,1219,15542,1015,968,438,0,0,0,199,206,135,2,1
Mon Sep 26 15:19:21 2016,599,-1372,732,7546,862,-2108,1085,15616,1015,967,440,0,0,0,199,206,135,2,1
Mon Sep 26 15:19:21 2016,610,-1608,488,7648,1049,-2081,883,15701,1015,967,440,0,0,0,199,206,135,2,1
Mon Sep 26 15:19:21 2016,619,-2378,256,8028,1228,-2190,724,15623,1016,967,438,0,0,0,199,206,136,2,1
Mon Sep 26 15:19:21 2016,629,-2656,332,7844,1488,-2470,474,15581,1013,967,441,0,0,0,199,206,136,2,1
Mon Sep 26 15:19:21 2016,639,-2704,248,7484,1546,-2644,288,15602,1013,967,440,0,0,0,199,206,136,2,1
Mon Sep 26 15:19:21 2016,650,-2438,42,6600,1609,-2759,-21,15572,1013,966,443,0,0,0,199,206,136,2,1
Mon Sep 26 15:19:21 2016,659,-2566,-194,6108,1684,-2775,-238,15610,1014,966,440,0,0,0,199,206,135,2,1
Mon Sep 26 15:19:21 2016,669,-3308,-312,6208,1932,-2765,-528,15586,1013,965,441,0,0,0,199,206,135,2,1
Mon Sep 26 15:19:21 2016,679,-4252,-240,5790,2120,-2849,-694,15584,1013,965,442,0,0,0,199,206,136,2,1
Mon Sep 26 15:19:21 2016,690,-4324,-202,5118,2348,-2964,-904,15611,1011,966,439,0,0,0,199,206,135,2,1
Mon Sep 26 15:19:21 2016,699,-4194,-92,3804,2454,-2889,-1003,15619,1013,965,439,0,0,0,199,206,135,2,1
Mon Sep 26 15:19:21 2016,710,-4472,200,3054,2450,-2497,-1144,15617,1013,966,438,0,0,0,199,206,136,2,1
Mon Sep 26 15:19:21 2016,720,-5166,918,2118,2292,-2168,-1253,15556,1012,964,448,0,0,0,199,206,135,2,1
Mon Sep 26 15:19:22 2016,729,-5812,1308,1616,1903,-1598,-1249,15576,1011,964,438,0,0,0,199,206,135,2,1
Mon Sep 26 15:19:22 2016,739,-7116,1902,1172,1626,-1237,-1100,15531,1012,965,442,0,0,0,199,206,135,2,1
Mon Sep 26 15:19:22 2016,749,-7332,2100,514,1149,-626,-680,15545,1011,965,438,0,0,0,199,206,135,2,1
Mon Sep 26 15:19:22 2016,759,-7190,2600,-386,754,-46,-254,15565,1012,964,440,0,0,0,199,206,136,2,1
Mon Sep 26 15:19:22 2016,769,-8210,2958,-646,-16,988,354,15545,1011,964,438,0,0,0,199,206,136,2,1
Mon Sep 26 15:19:22 2016,779,-10010,2494,-34,-479,1565,785,15551,1011,964,440,0,0,0,199,206,136,2,1
Mon Sep 26 15:19:22 2016,790,-10846,2606,316,-1004,2308,1538,15530,1011,964,439,0,0,0,199,206,136,2,1
Mon Sep 26 15:19:22 2016,799,-10666,2376,524,-1333,2803,2005,15575,1011,963,440,0,0,0,199,206,136,2,1
Mon Sep 26 15:19:22 2016,809,-10026,2324,1558,-1879,3622,2670,15551,1011,963,440,0,0,0,199,206,136,2,1
Mon Sep 26 15:19:22 2016,819,11932,2576,16390,-2457,4472,2612,15564,1012,964,446,0,0,0,199,206,136,2,1
Mon Sep 26 15:19:22 2016,830,19114,17872,24848,-3330,4764,1779,15577,1015,970,439,0,0,0,199,206,136,2,1
Mon Sep 26 15:19:22 2016,839,4062,-5450,-2030,-5245,5923,-1232,15526,1021,978,438,0,0,0,199,206,136,2,1
Mon Sep 26 15:19:22 2016,850,-684,-14678,2750,-5413,6825,-2741,15661,1021,978,441,0,0,0,199,206,136,2,1
Mon Sep 26 15:19:22 2016,859,-7422,-14836,15342,-2830,7394,-1417,15597,1020,974,440,0,0,0,199,206,136,2,1
Mon Sep 26 15:19:22 2016,870,-8738,-11514,10516,-643,7075,-1642,15565,1018,974,438,0,0,0,199,206,136,2,1
Mon Sep 26 15:19:22 2016,879,-10380,-2970,13726,91,6933,-1744,15590,1016,972,442,0,0,0,199,206,136,2,1
Mon Sep 26 15:19:22 2016,890,-10272,5894,10624,186,5721,-990,15562,1016,973,440,0,0,0,199,206,136,2,1
Mon Sep 26 15:19:22 2016,899,-7938,3676,9766,-142,5196,-452,15594,1015,973,441,0,0,0,199,206,136,2,1
Mon Sep 26 15:19:22 2016,909,-6560,864,10136,-264,4507,-99,15568,1015,974,441,0,0,0,199,206,136,2,1
Mon Sep 26 15:19:22 2016,919,-8412,2500,8048,-639,4553,-842,15632,1016,974,441,0,0,0,199,206,136,2,1
Mon Sep 26 15:19:22 2016,929,-14012,6298,7718,-1713,3247,-468,15560,1016,976,438,0,0,0,199,206,136,2,1
Mon Sep 26 15:19:22 2016,939,-4774,-106,9470,-1740,2651,-601,15607,1015,976,447,0,0,0,199,206,136,2,1
Mon Sep 26 15:19:22 2016,950,-4882,-334,6856,-1908,1828,-762,15597,1016,977,439,0,0,0,199,206,136,2,1
Mon Sep 26 15:19:22 2016,959,-3598,1966,8422,-1901,1709,-913,15573,1016,976,437,0,0,0,199,206,136,2,1
Mon Sep 26 15:19:22 2016,969,-4020,1276,7638,-2001,1585,-886,15530,1016,977,437,0,0,0,199,206,136,2,1
Mon Sep 26 15:19:22 2016,979,-1650,1460,7490,-1946,1582,-1041,15545,1015,978,446,0,0,0,199,206,136,2,1
Mon Sep 26 15:19:22 2016,989,-4118,704,7598,-1780,1689,-1111,15527,1016,978,444,0,0,0,199,206,135,2,1
Mon Sep 26 15:19:22 2016,999,-5552,-2334,7228,-1316,1365,-1062,15538,1013,977,445,0,0,0,199,206,135,2,1
Mon Sep 26 15:19:22 2016,1010,-3064,-252,7690,-854,1195,-685,15571,1016,978,437,0,0,0,199,206,135,2,1
Mon Sep 26 15:19:22 2016,1019,-3966,-498,7728,-494,1336,-582,15533,1015,978,444,0,0,0,199,206,135,2,1
Mon Sep 26 15:19:22 2016,1030,-3470,394,8406,-270,1535,-354,15530,1016,980,447,0,0,0,199,206,135,2,1
Mon Sep 26 15:19:22 2016,1040,-4330,1916,9674,-27,1644,-185,15527,1016,980,445,0,0,0,199,206,135,2,1
Mon Sep 26 15:19:22 2016,1050,-4712,1422,7168,-151,1562,-233,15522,1017,982,444,0,0,0,199,206,136,2,1
Mon Sep 26 15:19:22 2016,1059,-4046,1666,7440,-70,1373,-247,15537,1015,983,445,0,0,0,199,206,135,2,1
Mon Sep 26 15:19:22 2016,1070,-3806,1688,6228,-140,1035,-251,15493,1017,983,439,0,0,0,199,206,137,2,1
Mon Sep 26 15:19:22 2016,1080,-3810,274,7192,-172,985,-357,15527,1016,984,445,0,0,0,199,206,135,2,1
Mon Sep 26 15:19:22 2016,1090,-4196,506,6772,-38,1086,-280,15503,1016,983,446,0,0,0,199,206,137,2,1
Mon Sep 26 15:19:22 2016,1100,-4944,230,6946,63,1115,-185,15574,1017,984,446,0,0,0,199,206,137,2,1
Mon Sep 26 15:19:22 2016,1110,-4634,706,6806,141,1060,-99,15570,1017,982,437,0,0,0,199,206,136,2,1
Mon Sep 26 15:19:22 2016,1119,-4194,822,6996,152,1122,-88,15573,1016,982,442,0,0,0,199,206,137,2,1
Mon Sep 26 15:19:22 2016,1130,-4650,742,7020,167,1171,-88,15590,1018,982,442,0,0,0,199,206,138,2,1
Mon Sep 26 15:19:22 2016,1139,-3790,702,7126,212,1211,-84,15591,1016,982,438,0,0,0,199,206,136,2,1
Mon Sep 26 15:19:22 2016,1150,-4444,934,7146,286,1432,-108,15561,1017,981,438,0,0,0,199,206,137,2,1
Mon Sep 26 15:19:22 2016,1159,-4806,836,6660,278,1379,-141,15583,1017,981,438,0,0,0,199,206,138,2,1
Mon Sep 26 15:19:22 2016,1170,-4714,684,6642,262,1302,-120,15562,1017,980,448,0,0,0,199,206,136,2,1
Mon Sep 26 15:19:22 2016,1180,-4380,548,6462,215,1250,-66,15578,1017,980,438,0,0,0,199,206,138,2,1
Mon Sep 26 15:19:22 2016,1189,-4630,730,6398,240,1216,-73,15606,1019,979,440,0,0,0,199,206,136,2,1
Mon Sep 26 15:19:22 2016,1199,-4826,732,6502,207,1195,-74,15591,1018,978,441,0,0,0,199,206,136,2,1
Mon Sep 26 15:19:22 2016,1209,-5004,704,6518,199,1116,-27,15587,1019,977,441,0,0,0,199,206,135,2,1
Mon Sep 26 15:19:22 2016,1220,-4530,752,6600,207,1061,-27,15544,1019,977,436,0,0,0,199,206,136,2,1
Mon Sep 26 15:19:22 2016,1230,-4752,1070,6422,182,1049,-41,15521,1018,976,445,0,0,0,199,206,135,2,1
Mon Sep 26 15:19:22 2016,1239,-4638,1178,6234,132,1034,-104,15526,1019,976,446,0,0,0,199,206,136,2,1
Mon Sep 26 15:19:22 2016,1250,-4480,1254,6214,58,1074,-258,15517,1017,975,439,0,0,0,199,206,135,2,1
Mon Sep 26 15:19:22 2016,1259,-4750,1276,5936,5,1098,-374,15559,1018,975,447,0,0,0,199,206,136,2,1
Mon Sep 26 15:19:22 2016,1269,-4966,640,6290,15,1028,-558,15555,1017,975,439,0,0,0,199,206,135,2,1
Mon Sep 26 15:19:22 2016,1280,-5456,918,5824,-76,889,-591,15528,1019,977,444,0,0,0,199,206,135,2,1
Mon Sep 26 15:19:22 2016,1290,-5078,946,6046,-159,694,-625,15516,1017,978,441,0,0,0,199,206,136,2,1
Mon Sep 26 15:19:22 2016,1299,-4782,1530,6592,-236,658,-667,15549,1018,981,446,0,0,0,199,206,135,2,1
Mon Sep 26 15:19:22 2016,1309,-4360,694,6692,-241,830,-780,15549,1018,981,440,0,0,0,199,206,136,2,1
Mon Sep 26 15:19:22 2016,1319,-4704,520,6540,-286,796,-890,15540,1019,983,445,0,0,0,199,206,135,2,1
Mon Sep 26 15:19:22 2016,1330,-4752,1160,6816,-218,974,-965,15520,1018,982,453,0,0,0,199,206,136,2,1
Mon Sep 26 15:19:22 2016,1339,-4632,1028,6908,-163,943,-712,15548,1019,983,439,0,0,0,199,206,135,2,1
Mon Sep 26 15:19:22 2016,1350,-4752,458,6438,-39,1245,-602,15607,1019,983,438,0,0,0,199,206,136,2,1
Mon Sep 26 15:19:22 2016,1359,-5182,154,6352,-89,1540,-469,15593,1019,984,438,0,0,0,199,206,135,2,1
Mon Sep 26 15:19:22 2016,1370,-4770,490,6572,-123,1856,-323,15579,1018,985,437,0,0,0,199,206,136,2,1
Mon Sep 26 15:19:22 2016,1380,-5266,656,5996,-158,2213,-232,15604,1018,985,442,0,0,0,199,206,135,2,1
Mon Sep 26 15:19:22 2016,1389,-5186,836,6616,-63,2855,-212,15586,1019,986,441,0,0,0,199,206,135,2,1
Mon Sep 26 15:19:22 2016,1400,-5380,1132,6584,56,3476,-336,15591,1021,984,441,0,0,0,199,206,136,2,1
Mon Sep 26 15:19:22 2016,1411,-4668,-72,7602,110,4749,-278,15605,1020,974,441,0,0,0,199,206,136,2,1
Mon Sep 26 15:19:22 2016,1420,-5182,398,7034,10,5575,-259,15592,1012,959,439,0,0,0,199,206,135,2,1
Mon Sep 26 15:19:22 2016,1431,-4880,622,7332,-284,6894,-209,15614,997,938,441,0,0,0,199,206,136,2,1
Mon Sep 26 15:19:22 2016,1440,-3810,692,7242,-417,7801,-423,15587,982,921,439,0,0,0,199,206,135,2,1
Mon Sep 26 15:19:22 2016,1451,-4266,746,7802,-528,9141,-630,15585,966,894,437,0,0,0,199,206,136,2,1
Mon Sep 26 15:19:22 2016,1461,-7004,1816,7928,-595,9786,-787,15591,938,835,439,0,0,0,199,206,136,2,1
Mon Sep 26 15:19:22 2016,1471,-7494,920,7116,-596,11424,-1194,15545,901,808,446,0,0,0,199,206,136,2,1
Mon Sep 26 15:19:22 2016,1480,-5556,564,8060,-272,12259,-1071,15509,863,833,447,0,0,0,199,206,136,2,1
Mon Sep 26 15:19:22 2016,1491,-8026,516,7736,172,13877,-662,15486,892,876,440,0,0,0,199,206,136,2,1
Mon Sep 26 15:19:22 2016,1500,-10816,-344,4982,918,16802,-951,15502,907,905,453,0,0,0,199,206,136,2,1
Mon Sep 26 15:19:22 2016,1510,-17568,3414,10008,2269,17077,-271,15507,920,909,440,0,0,0,199,206,136,2,1
Mon Sep 26 15:19:22 2016,1520,-17080,2660,10972,4602,16790,-723,15460,927,917,437,0,0,0,199,206,136,2,1
Mon Sep 26 15:19:22 2016,1530,-13620,2338,12276,5369,15845,-698,15490,914,902,440,0,0,0,199,206,136,2,1
Mon Sep 26 15:19:22 2016,1539,-15504,3958,12000,6523,14009,-2311,15472,868,922,438,0,0,0,199,206,136,2,1
Mon Sep 26 15:19:22 2016,1550,-12182,3188,19398,7015,12066,-3298,15466,827,828,438,0,0,0,199,206,136,2,1
Mon Sep 26 15:19:22 2016,1560,-12602,626,15648,6758,10464,-2910,15496,983,839,438,0,0,0,199,206,136,2,1
Mon Sep 26 15:19:22 2016,1570,-3394,1674,17762,5422,7597,-4242,15509,1008,964,438,0,0,0,199,206,136,2,1
Mon Sep 26 15:19:22 2016,1579,-32768,16638,23064,3147,4386,-3299,15539,1014,975,446,0,0,0,199,206,136,2,1
Mon Sep 26 15:19:22 2016,1590,-15892,17808,32767,3368,1443,-3024,15502,1014,970,438,0,0,0,199,206,136,2,1
Mon Sep 26 15:19:22 2016,1600,-2154,9858,23898,314,-4844,-2637,15570,1015,968,438,0,0,0,199,206,136,2,1
Mon Sep 26 15:19:22 2016,1610,1086,7658,16892,-843,-7328,-2170,15574,1016,967,440,0,0,0,199,206,136,2,1
Mon Sep 26 15:19:22 2016,1620,2924,4040,10668,-1471,-7978,-2016,15550,1015,962,438,0,0,0,199,206,136,2,1
Mon Sep 26 15:19:22 2016,1630,2036,3786,10012,-1215,-7763,-1946,15553,1016,961,438,0,0,0,199,206,136,2,1
Mon Sep 26 15:19:22 2016,1640,-1140,3684,10002,-441,-8347,-1504,15534,1015,959,438,0,0,0,199,206,136,2,1
Mon Sep 26 15:19:22 2016,1650,-3276,3960,10498,-112,-9302,-1092,15551,1015,959,440,0,0,0,199,206,136,2,1
Mon Sep 26 15:19:22 2016,1660,-3642,4288,9228,262,-10731,-473,15526,1015,957,439,0,0,0,199,206,136,2,1
Mon Sep 26 15:19:22 2016,1670,-3154,4274,7348,282,-11335,-169,15545,1015,956,440,0,0,0,199,206,136,2,1
Mon Sep 26 15:19:22 2016,1680,-2928,3340,4904,345,-11474,98,15532,1014,956,439,0,0,0,199,206,136,2,1
Mon Sep 26 15:19:22 2016,1689,-3202,2662,3886,539,-11238,230,15554,1014,956,438,0,0,0,199,206,136,2,1
Mon Sep 26 15:19:22 2016,1700,-5846,1986,5706,1091,-10585,320,15561,1013,956,438,0,0,0,199,206,136,2,1
Mon Sep 26 15:19:22 2016,1710,-6038,1450,5718,1752,-10789,597,15565,1013,957,441,0,0,0,199,206,135,2,1
Mon Sep 26 15:19:22 2016,1720,-7306,1646,6698,2567,-10656,803,15512,1013,957,438,0,0,0,199,206,136,2,1
Mon Sep 26 15:19:23 2016,1730,-7324,1952,6712,3039,-10761,1073,15507,1014,957,441,0,0,0,199,206,135,2,1
Mon Sep 26 15:19:23 2016,1740,-7810,2074,7472,3413,-10679,1639,15463,1013,958,438,0,0,0,199,206,136,2,1
Mon Sep 26 15:19:23 2016,1749,-8282,2114,7690,3479,-10577,2064,15505,1013,958,438,0,0,0,199,206,136,2,1
Mon Sep 26 15:19:23 2016,1760,-9622,1688,8588,3427,-10488,2742,15477,1012,959,446,0,0,0,199,206,136,2,1
Mon Sep 26 15:19:23 2016,1769,-10194,1492,8820,3225,-10427,3210,15477,1012,957,439,0,0,0,199,206,136,2,1
Mon Sep 26 15:19:23 2016,1780,-10174,638,9402,2956,-10415,3906,15465,1012,957,445,0,0,0,199,206,136,2,1
Mon Sep 26 15:19:23 2016,1789,-10208,616,8954,2706,-10307,4324,15471,1011,956,437,0,0,0,199,206,136,2,1
Mon Sep 26 15:19:23 2016,1799,-9764,-60,9522,2329,-10186,4929,15493,1013,956,440,0,0,0,199,206,136,2,1
Mon Sep 26 15:19:23 2016,1810,-9334,-624,9906,2040,-9867,5172,15498,1012,955,442,0,0,0,199,206,136,2,1
Mon Sep 26 15:19:23 2016,1819,-9786,-1144,10646,1891,-9662,5186,15450,1009,953,441,0,0,0,199,206,136,2,1
Mon Sep 26 15:19:23 2016,1830,-10370,-1172,11866,1800,-9500,5082,15474,1010,951,447,0,0,0,199,206,135,2,1
Mon Sep 26 15:19:23 2016,1839,-12390,-1054,13382,1706,-9515,4714,15484,1010,951,437,0,0,0,199,206,136,2,1
Mon Sep 26 15:19:23 2016,1850,-13160,-686,14042,1643,-9729,4387,15531,1009,950,438,0,0,0,199,206,135,2,1
Mon Sep 26 15:19:23 2016,1859,-13832,358,14588,1486,-10135,3838,15538,1009,948,438,0,0,0,199,206,136,2,1
Mon Sep 26 15:19:23 2016,1870,-15004,1136,14350,1362,-10323,3433,15531,1009,947,440,0,0,0,199,206,135,2,1
Mon Sep 26 15:19:23 2016,1880,-17304,1248,13414,1347,-10594,3018,15491,1008,947,437,0,0,0,199,206,136,2,1
Mon Sep 26 15:19:23 2016,1890,-18034,1420,12078,1649,-10655,2899,15541,1008,945,446,0,0,0,199,206,136,2,1
Mon Sep 26 15:19:23 2016,1900,-18442,294,6418,2618,-10388,2900,15497,1009,946,439,0,0,0,199,206,136,2,1
Mon Sep 26 15:19:23 2016,1910,-18414,-878,2612,4098,-9151,3263,15506,1008,946,440,0,0,0,199,206,135,2,1
Mon Sep 26 15:19:23 2016,1920,-18730,-2910,-1216,5024,-7959,3759,15503,1007,946,438,0,0,0,199,206,135,2,1
Mon Sep 26 15:19:23 2016,1930,-20358,-6134,-2642,5847,-6722,4359,15562,1006,946,446,0,0,0,199,206,135,2,1
Mon Sep 26 15:19:23 2016,1939,-25392,-5212,-7230,6275,-5578,5064,15539,1008,949,442,0,0,0,199,206,135,2,1
Mon Sep 26 15:19:23 2016,1950,-24976,-4580,-12028,5100,-4654,4761,15563,1008,950,442,0,0,0,199,206,136,2,1
Mon Sep 26 15:19:23 2016,1959,-22422,-5464,-15406,1835,-2075,3141,15546,1009,951,441,0,0,0,199,206,136,2,1
Mon Sep 26 15:19:23 2016,1970,-20786,-5386,-13478,-367,84,1659,15512,1008,952,440,0,0,0,199,206,136,2,1
Mon Sep 26 15:19:23 2016,1979,-20192,-4404,-6226,-2812,2598,-508,15512,1007,951,439,0,0,0,199,206,136,2,1
Mon Sep 26 15:19:23 2016,1989,-19054,-4546,-622,-3327,3295,-1441,15507,1007,951,446,0,0,0,199,206,135,2,1
Mon Sep 26 15:19:23 2016,1999,-16068,-864,3070,-3089,3346,-1789,15515,1008,952,440,0,0,0,199,206,135,2,1
Mon Sep 26 15:19:23 2016,2010,13074,-456,-12810,-2663,6172,-2837,15529,1002,941,443,0,0,0,199,206,135,2,1
Mon Sep 26 15:19:23 2016,2019,-6914,7920,2688,-4365,7640,-3824,15424,1002,939,438,0,0,0,199,206,136,2,1
Mon Sep 26 15:19:23 2016,2030,7292,6606,14182,-5131,7854,-4845,15431,1001,941,445,0,0,0,199,206,135,2,1
Mon Sep 26 15:19:23 2016,2039,322,-8738,2202,-3329,10646,-2510,15427,1002,944,454,0,0,0,199,206,136,2,1
Mon Sep 26 15:19:23 2016,2049,-16964,-9064,18188,-1726,11274,-1787,15463,1002,944,446,0,0,0,199,206,135,2,1
Mon Sep 26 15:19:23 2016,2059,-16210,-6980,21696,-831,9990,-1389,15425,1004,946,438,0,0,0,199,206,135,2,1
Mon Sep 26 15:19:23 2016,2070,-13520,3274,10822,-503,9199,-1335,15436,1008,951,439,0,0,0,199,206,135,2,1
Mon Sep 26 15:19:23 2016,2080,-9698,8054,11164,-894,7825,-464,15426,1015,957,437,0,0,0,199,206,135,2,1
Mon Sep 26 15:19:23 2016,2090,-6998,1644,9426,-729,8476,-1304,15445,1017,961,445,0,0,0,199,206,135,2,1
Mon Sep 26 15:19:23 2016,2099,-13548,32,8114,-2279,5381,-637,15498,1023,973,439,0,0,0,199,206,136,2,1
Mon Sep 26 15:19:23 2016,2110,-8734,-472,10720,-2125,4537,-801,15513,1024,979,440,0,0,0,199,206,136,2,1
Mon Sep 26 15:19:23 2016,2119,-8874,390,9858,-1846,3444,-1123,15484,1026,984,441,0,0,0,199,206,135,2,1
Mon Sep 26 15:19:23 2016,2129,-6850,300,6844,-2055,2723,-1043,15516,1026,986,441,0,0,0,199,206,136,2,1
Mon Sep 26 15:19:23 2016,2140,-6044,-1344,8220,-1723,2086,-1123,15528,1028,989,438,0,0,0,199,206,136,2,1
Mon Sep 26 15:19:23 2016,2150,-5028,2006,8132,-1615,1433,-996,15547,1028,990,439,0,0,0,199,206,136,2,1
Mon Sep 26 15:19:23 2016,2160,-4214,808,6938,-1713,1000,-1141,15495,1029,992,439,0,0,0,199,206,135,2,1
Mon Sep 26 15:19:23 2016,2170,-3626,-440,7826,-1547,864,-1148,15521,1030,994,438,0,0,0,199,206,136,2,1
Mon Sep 26 15:19:23 2016,2179,-4228,1178,7420,-1508,625,-1058,15504,1029,997,439,0,0,0,199,206,135,2,1
Mon Sep 26 15:19:23 2016,2189,-3572,60,7570,-1344,511,-987,15531,1029,998,438,0,0,0,199,206,135,2,1
Mon Sep 26 15:19:23 2016,2199,-4300,28,7410,-920,441,-750,15533,1030,999,438,0,0,0,199,206,135,2,1
Mon Sep 26 15:19:23 2016,2210,-3578,302,7142,-602,583,-516,15507,1028,1001,439,0,0,0,199,206,135,2,1
Mon Sep 26 15:19:23 2016,2219,-4556,796,7406,-530,601,-358,15478,1030,999,446,0,0,0,199,206,135,2,1
Mon Sep 26 15:19:23 2016,2229,-4102,576,7308,-494,744,-283,15481,1028,1000,436,0,0,0,199,206,136,2,1
Mon Sep 26 15:19:23 2016,2239,-4528,796,7282,-475,895,-189,15438,1029,999,439,0,0,0,199,206,135,2,1
Mon Sep 26 15:19:23 2016,2249,-4232,1144,7374,-393,856,-197,15476,1028,999,438,0,0,0,199,206,136,2,1
Mon Sep 26 15:19:23 2016,2259,-3912,1352,7146,-335,931,-333,15452,1028,1000,445,0,0,0,199,206,135,2,1
Mon Sep 26 15:19:23 2016,2269,-4136,954,6990,-235,1032,-414,15493,1028,1000,453,0,0,0,199,206,135,2,1
Mon Sep 26 15:19:23 2016,2279,-4814,-38,7190,-87,1017,-412,15452,1029,1000,437,0,0,0,199,206,135,2,1
Mon Sep 26 15:19:23 2016,2290,-4612,260,7028,43,888,-333,15473,1029,999,446,0,0,0,199,206,135,2,1
Mon Sep 26 15:19:23 2016,2299,-4188,156,6970,102,908,-204,15440,1028,1000,438,0,0,0,199,206,135,2,1
Mon Sep 26 15:19:23 2016,2310,-4184,334,7016,149,934,-90,15475,1028,1000,438,0,0,0,199,206,135,2,1
Mon Sep 26 15:19:23 2016,2319,-4260,584,6882,119,1008,-65,15433,1028,999,441,0,0,0,199,206,135,2,1
Mon Sep 26 15:19:23 2016,2330,-4284,560,6840,136,1069,-63,15483,1027,999,438,0,0,0,199,206,136,2,1
Mon Sep 26 15:19:23 2016,2340,-4472,458,6742,163,1075,-71,15448,1028,1000,438,0,0,0,199,206,135,2,1
Mon Sep 26 15:19:23 2016,2350,-4454,526,6548,174,1049,-53,15540,1028,999,442,0,0,0,199,206,136,2,1
Mon Sep 26 15:19:23 2016,2360,-4198,810,6700,154,984,-154,15531,1028,997,438,0,0,0,199,206,135,2,1
Mon Sep 26 15:19:23 2016,2369,-4336,772,6530,159,981,-240,15548,1029,996,439,0,0,0,199,206,136,2,1
Mon Sep 26 15:19:23 2016,2379,-5014,1704,6394,142,919,-274,15508,1028,995,438,0,0,0,199,206,135,2,1
Mon Sep 26 15:19:23 2016,2389,-4576,798,6356,184,848,-394,15547,1029,996,439,0,0,0,199,206,136,2,1
Mon Sep 26 15:19:23 2016,2399,-4562,572,6542,174,655,-477,15505,1028,996,440,0,0,0,199,206,135,2,1
Mon Sep 26 15:19:23 2016,2409,-4472,446,6596,147,600,-471,15557,1030,998,446,0,0,0,199,206,135,2,1
Mon Sep 26 15:19:23 2016,2419,-4542,58,6466,182,620,-410,15534,1030,998,438,0,0,0,199,206,135,2,1
Mon Sep 26 15:19:23 2016,2429,-4280,128,7046,181,615,-355,15559,1030,1002,438,0,0,0,199,206,136,2,1
Mon Sep 26 15:19:23 2016,2439,-4260,266,6574,164,779,-264,15518,1030,1001,438,0,0,0,199,206,136,2,1
Mon Sep 26 15:19:23 2016,2449,-4414,564,6458,169,904,-238,15536,1032,1004,442,0,0,0,199,206,136,2,1
Mon Sep 26 15:19:23 2016,2459,-4478,688,6488,181,1207,-198,15520,1031,1004,440,0,0,0,199,206,135,2,1
Mon Sep 26 15:19:23 2016,2469,-4294,472,6720,154,1396,-197,15511,1031,1005,441,0,0,0,199,206,136,2,1
Mon Sep 26 15:19:23 2016,2479,-4186,726,6710,108,1822,-199,15459,1032,1003,437,0,0,0,199,206,136,2,1
Mon Sep 26 15:19:23 2016,2489,-4174,390,7210,203,2114,-169,15529,1032,1005,438,0,0,0,199,206,136,2,1
Mon Sep 26 15:19:23 2016,2499,-4680,618,6848,265,2754,-188,15472,1032,1004,438,0,0,0,199,206,136,2,1
Mon Sep 26 15:19:23 2016,2510,-4596,428,6650,308,3421,-234,15530,1033,1005,439,0,0,0,199,206,136,2,1
Mon Sep 26 15:19:23 2016,2519,-4884,722,6544,251,3932,-199,15457,1034,1001,445,0,0,0,199,206,135,2,1
Mon Sep 26 15:19:23 2016,2530,-5764,864,6328,415,4143,-169,15503,1034,999,446,0,0,0,199,206,136,2,1
Mon Sep 26 15:19:23 2016,2539,-5766,594,6748,431,4598,-29,15449,1032,991,441,0,0,0,199,206,136,2,1
Mon Sep 26 15:19:23 2016,2550,-6304,512,6710,230,5200,-61,15500,1026,980,454,0,0,0,199,206,136,2,1
Mon Sep 26 15:19:23 2016,2560,-5588,-492,7824,-352,6073,17,15476,1014,967,452,0,0,0,199,206,136,2,1
Mon Sep 26 15:19:23 2016,2570,-4340,228,7822,-615,6686,41,15535,1003,959,452,0,0,0,199,206,136,2,1
Mon Sep 26 15:19:23 2016,2580,-5392,786,7448,-690,8501,184,15492,996,953,446,0,0,0,199,206,136,2,1
Mon Sep 26 15:19:23 2016,2590,-6602,1056,6690,-965,9437,-9,15520,990,939,437,0,0,0,199,206,136,2,1
Mon Sep 26 15:19:23 2016,2600,-6650,1464,7012,-1266,11130,-231,15491,976,908,436,0,0,0,199,206,136,2,1
Mon Sep 26 15:19:23 2016,2610,-5712,1906,6672,-1163,12360,-372,15508,948,857,446,0,0,0,199,206,136,2,1
Mon Sep 26 15:19:23 2016,2619,-7638,3182,6502,-413,13955,-886,15499,886,799,446,0,0,0,199,206,136,2,1
Mon Sep 26 15:19:23 2016,2630,-5822,850,3844,-68,13644,-771,15543,852,771,439,0,0,0,199,206,136,2,1
Mon Sep 26 15:19:23 2016,2640,-11482,2422,6940,1611,17268,-1171,15483,838,772,439,0,0,0,199,206,136,2,1
Mon Sep 26 15:19:23 2016,2650,-13418,3584,7930,2674,17254,-1008,15522,836,776,441,0,0,0,199,206,135,2,1
Mon Sep 26 15:19:23 2016,2659,-19116,1934,12958,3753,17019,-2001,15475,840,785,451,0,0,0,199,206,135,2,1
Mon Sep 26 15:19:23 2016,2670,-14416,4146,10650,5387,15964,-2290,15547,847,807,444,0,0,0,199,206,136,2,1
Mon Sep 26 15:19:23 2016,2680,-18908,8742,17642,7868,13789,-2304,15469,849,827,436,0,0,0,199,206,136,2,1
Mon Sep 26 15:19:23 2016,2690,-32768,-1516,9758,7856,11449,-3780,15533,950,869,439,0,0,0,199,206,135,2,1
Mon Sep 26 15:19:23 2016,2700,3410,-948,20222,4500,9684,-5824,15511,976,991,438,0,0,0,199,206,136,2,1
Mon Sep 26 15:19:23 2016,2710,-9160,10158,25558,2567,6646,-5900,15548,992,964,447,0,0,0,199,206,136,2,1
Mon Sep 26 15:19:23 2016,2719,-20780,15154,32767,2860,6589,-4269,15475,991,962,436,0,0,0,199,206,136,2,1
Mon Sep 26 15:19:24 2016,2730,-5834,14796,32767,2482,1292,-3059,15503,993,959,442,0,0,0,199,206,136,2,1
Mon Sep 26 15:19:24 2016,2739,-4252,9622,20996,-539,-3179,-2314,15455,993,956,445,0,0,0,199,206,136,2,1
Mon Sep 26 15:19:24 2016,2750,-916,7214,15628,-1126,-6033,-1634,15492,994,950,440,0,0,0,199,206,136,2,1
Mon Sep 26 15:19:24 2016,2760,1234,4730,10402,-1461,-6736,-984,15457,994,946,442,0,0,0,199,206,136,2,1
Mon Sep 26 15:19:24 2016,2770,1048,3562,8032,-1030,-6961,-567,15520,994,942,439,0,0,0,199,206,136,2,1
Mon Sep 26 15:19:24 2016,2780,-244,2834,7850,-214,-7460,175,15451,996,941,446,0,0,0,199,206,136,2,1
Mon Sep 26 15:19:24 2016,2790,-1332,3142,7768,193,-8077,606,15500,995,939,439,0,0,0,199,206,136,2,1
Mon Sep 26 15:19:24 2016,2800,-2180,3644,7380,325,-8920,833,15421,995,938,445,0,0,0,199,206,136,2,1
Mon Sep 26 15:19:24 2016,2809,-2854,3538,6830,195,-9459,891,15517,995,938,455,0,0,0,199,206,136,2,1
Mon Sep 26 15:19:24 2016,2819,-3786,3236,6784,-66,-10071,865,15460,997,938,438,0,0,0,199,206,136,2,1
Mon Sep 26 15:19:24 2016,2830,-4892,2894,6562,-103,-10614,907,15574,996,939,442,0,0,0,199,206,136,2,1
Mon Sep 26 15:19:24 2016,2839,-7758,3592,7066,-236,-11014,888,15427,997,939,438,0,0,0,199,206,136,2,1
Mon Sep 26 15:19:24 2016,2850,-7346,2178,6758,397,-11158,1081,15633,997,940,442,0,0,0,199,206,136,2,1
Mon Sep 26 15:19:24 2016,2860,-6848,2038,5030,801,-11833,1314,15508,999,941,437,0,0,0,199,206,136,2,1
Mon Sep 26 15:19:24 2016,2869,-6516,2700,6176,1080,-11720,1458,15589,998,941,440,0,0,0,199,206,136,2,1
Mon Sep 26 15:19:24 2016,2879,-7338,2798,5166,1533,-11640,1765,15494,999,943,440,0,0,0,199,206,136,2,1
Mon Sep 26 15:19:24 2016,2889,-7208,2760,5484,1827,-11401,2055,15583,999,943,439,0,0,0,199,206,136,2,1
Mon Sep 26 15:19:24 2016,2900,-8338,2464,5990,2311,-10959,2608,15503,998,943,439,0,0,0,199,206,136,2,1
Mon Sep 26 15:19:24 2016,2910,-9444,2540,7284,2516,-10768,3091,15566,997,942,437,0,0,0,199,206,136,2,1
Mon Sep 26 15:19:24 2016,2920,-10834,2604,8370,2791,-10719,3815,15472,997,940,437,0,0,0,199,206,136,2,1
Mon Sep 26 15:19:24 2016,2931,-11218,2980,9018,2797,-10747,4292,15568,997,940,439,0,0,0,199,206,136,2,1
Mon Sep 26 15:19:24 2016,2940,-11042,3782,9574,2390,-10741,4947,15489,998,938,440,0,0,0,199,206,136,2,1
Mon Sep 26 15:19:24 2016,2951,-11484,3112,10800,2001,-10490,5310,15559,996,936,442,0,0,0,199,206,135,2,1
Mon Sep 26 15:19:24 2016,2960,-12336,1850,11670,1573,-10522,5850,15486,997,936,440,0,0,0,199,206,136,2,1
Mon Sep 26 15:19:24 2016,2971,-13066,1478,13052,1463,-10502,6066,15570,998,933,447,0,0,0,199,206,135,2,1
Mon Sep 26 15:19:24 2016,2981,-14124,1008,14214,1410,-10654,6220,15437,996,931,438,0,0,0,199,206,136,2,1
Mon Sep 26 15:19:24 2016,2990,-15046,618,15186,1500,-10722,6209,15515,996,930,446,0,0,0,199,206,135,2,1
Mon Sep 26 15:19:24 2016,3000,-16884,704,16400,1699,-11021,5946,15419,993,926,438,0,0,0,199,206,135,2,1
Mon Sep 26 15:19:24 2016,3009,-20008,1836,17662,1617,-11353,5450,15408,993,927,438,0,0,0,199,206,135,2,1
Mon Sep 26 15:19:24 2016,3019,-22002,2622,16072,1187,-11961,4336,15395,993,926,445,0,0,0,199,206,135,2,1
Mon Sep 26 15:19:24 2016,3029,-22474,1820,11408,1059,-12142,3576,15396,993,926,446,0,0,0,199,206,135,2,1
Mon Sep 26 15:19:24 2016,3039,-22500,278,7268,1995,-11692,2710,15376,993,926,445,0,0,0,199,206,135,2,1
Mon Sep 26 15:19:24 2016,3050,-23062,-4142,-150,3505,-10891,2540,15387,994,927,446,0,0,0,199,206,135,2,1
Mon Sep 26 15:19:24 2016,3060,-24014,-9286,-4818,7161,-9431,3494,15372,993,928,437,0,0,0,199,206,135,2,1
Mon Sep 26 15:19:24 2016,3070,-29224,-11260,-13132,9465,-8659,4474,15377,995,933,451,0,0,0,199,206,135,2,1
Mon Sep 26 15:19:24 2016,3079,-30068,-7496,-17974,8922,-6885,4683,15378,1001,945,438,0,0,0,199,206,135,2,1
Mon Sep 26 15:19:24 2016,3089,-26202,-4824,-20612,5818,-4548,3502,15405,1006,958,438,0,0,0,199,206,136,2,1
Mon Sep 26 15:19:24 2016,3099,-22108,-3296,-19094,-829,-32,554,15422,1007,960,440,0,0,0,199,206,135,2,1
Mon Sep 26 15:19:24 2016,3110,-18936,-3936,-12442,-4724,2753,-1612,15437,1007,957,437,0,0,0,199,206,135,2,1
Mon Sep 26 15:19:24 2016,3120,-19816,-4816,-2008,-6956,5148,-3448,15415,1006,955,441,0,0,0,199,206,135,2,1
Mon Sep 26 15:19:24 2016,3130,-20438,-5626,3958,-6044,5219,-3604,15449,1007,956,440,0,0,0,199,206,135,2,1
Mon Sep 26 15:19:24 2016,3140,-19374,-5452,5888,-3101,4106,-2579,15431,1008,959,438,0,0,0,199,206,135,2,1
Mon Sep 26 15:19:24 2016,3150,-13182,-646,7476,-1192,2979,-1523,15428,1007,960,446,0,0,0,199,206,136,2,1
Mon Sep 26 15:19:24 2016,3160,20188,20096,32767,-3149,4261,-476,15516,1005,957,442,0,0,0,199,206,136,2,1
Mon Sep 26 15:19:24 2016,3170,16226,8220,-4992,-3508,7385,-2687,15446,1008,961,439,0,0,0,199,206,135,2,1
Mon Sep 26 15:19:24 2016,3179,13716,-8270,-380,-4358,11183,-3121,15418,1010,967,441,0,0,0,199,206,135,2,1
Mon Sep 26 15:19:24 2016,3190,-15826,-10564,16630,-908,12238,-1057,15409,1012,970,440,0,0,0,199,206,136,2,1
Mon Sep 26 15:19:24 2016,3199,-23056,-8238,24248,-611,10848,-224,15386,1015,973,440,0,0,0,199,206,135,2,1
Mon Sep 26 15:19:24 2016,3210,-6832,1482,13650,-606,9793,-1433,15436,1023,983,438,0,0,0,199,206,136,2,1
Mon Sep 26 15:19:24 2016,3220,-12694,8666,11448,-1028,9000,-863,15410,1031,994,436,0,0,0,199,206,135,2,1
Mon Sep 26 15:19:24 2016,3230,-32768,7634,-82,-4360,7911,115,15374,1037,1010,445,0,0,0,199,206,135,2,1
Mon Sep 26 15:19:24 2016,3239,-11564,-10176,11362,-3036,4320,-1600,15354,1038,1013,440,0,0,0,199,206,135,2,1
Mon Sep 26 15:19:24 2016,3250,-8604,-3720,8760,-1853,3651,-1182,15360,1040,1019,440,0,0,0,199,206,135,2,1
Mon Sep 26 15:19:24 2016,3259,-8562,4910,9138,-2266,2286,-1222,15382,1042,1023,441,0,0,0,199,206,135,2,1
Mon Sep 26 15:19:24 2016,3270,-6270,-1106,10626,-2098,1472,-1520,15364,1043,1025,441,0,0,0,199,206,135,2,1
Mon Sep 26 15:19:24 2016,3280,-7704,630,7068,-1728,852,-1160,15396,1043,1027,439,0,0,0,199,206,135,2,1
Mon Sep 26 15:19:24 2016,3290,-6236,746,7624,-1466,549,-977,15404,1042,1028,438,0,0,0,199,206,136,2,1
Mon Sep 26 15:19:24 2016,3299,-4752,1084,8150,-1049,228,-715,15364,1042,1029,438,0,0,0,199,206,135,2,1
Mon Sep 26 15:19:24 2016,3310,-4068,778,7464,-883,173,-622,15443,1042,1028,438,0,0,0,199,206,135,2,1
Mon Sep 26 15:19:24 2016,3320,-3566,430,7394,-645,236,-536,15353,1040,1027,438,0,0,0,199,206,135,2,1
Mon Sep 26 15:19:24 2016,3329,-3902,514,7116,-488,309,-408,15380,1042,1026,447,0,0,0,199,206,135,2,1
Mon Sep 26 15:19:24 2016,3339,-3478,1116,7180,-423,447,-335,15365,1040,1026,438,0,0,0,199,206,135,2,1
Mon Sep 26 15:19:24 2016,3350,-3470,492,7368,-333,569,-277,15424,1041,1025,440,0,0,0,199,206,135,2,1
Mon Sep 26 15:19:24 2016,3360,-4020,-248,7480,-180,772,-18,15417,1041,1026,439,0,0,0,199,206,135,2,1
Mon Sep 26 15:19:24 2016,3369,-3620,2182,8192,-181,953,93,15432,1042,1028,441,0,0,0,199,206,135,2,1
Mon Sep 26 15:19:24 2016,3379,-3858,1094,7122,-253,1130,-36,15452,1042,1028,441,0,0,0,199,206,136,2,1
Mon Sep 26 15:19:24 2016,3389,-4138,1404,7100,-264,1129,-164,15422,1042,1028,440,0,0,0,199,206,135,2,1
Mon Sep 26 15:19:24 2016,3399,-4384,1134,7148,-195,1179,-282,15422,1042,1028,440,0,0,0,199,206,136,2,1
Mon Sep 26 15:19:24 2016,3410,-3860,1166,7124,-128,1220,-326,15437,1042,1027,448,0,0,0,199,206,136,2,1
Mon Sep 26 15:19:24 2016,3419,-4166,792,7106,-5,1369,-378,15418,1042,1027,442,0,0,0,199,206,136,2,1
Mon Sep 26 15:19:24 2016,3430,-4066,16,6832,149,1412,-303,15456,1042,1028,442,0,0,0,199,206,136,2,1
Mon Sep 26 15:19:24 2016,3439,-4276,488,7480,126,1547,-258,15443,1043,1028,440,0,0,0,199,206,136,2,1
Mon Sep 26 15:19:24 2016,3449,-4460,472,6962,200,1568,-210,15491,1043,1028,439,0,0,0,199,206,136,2,1
Mon Sep 26 15:19:24 2016,3459,-4726,326,6652,240,1535,-132,15487,1043,1028,441,0,0,0,199,206,136,2,1
Mon Sep 26 15:19:24 2016,3470,-4540,590,6714,251,1568,-116,15496,1042,1024,439,0,0,0,199,206,136,2,1
Mon Sep 26 15:19:24 2016,3480,-4396,1202,6604,252,1556,-150,15425,1043,1023,448,0,0,0,199,206,136,2,1
Mon Sep 26 15:19:24 2016,3489,-4304,878,6870,295,1546,-246,15425,1041,1021,439,0,0,0,199,206,136,2,1
Mon Sep 26 15:19:24 2016,3500,-4622,1054,6422,275,1444,-404,15440,1041,1019,441,0,0,0,199,206,136,2,1
Mon Sep 26 15:19:24 2016,3510,-4924,912,6472,300,1362,-467,15418,1040,1015,442,0,0,0,199,206,136,2,1
Mon Sep 26 15:19:24 2016,3519,-4848,1204,6318,303,1300,-537,15403,1040,1015,442,0,0,0,199,206,136,2,1
Mon Sep 26 15:19:24 2016,3529,-4660,640,6218,311,1314,-540,15376,1040,1014,444,0,0,0,199,206,136,2,1
Mon Sep 26 15:19:24 2016,3540,-4804,454,6436,275,1298,-532,15358,1041,1018,440,0,0,0,199,206,136,2,1
Mon Sep 26 15:19:24 2016,3549,-4958,228,6460,288,1104,-409,15354,1040,1017,439,0,0,0,199,206,135,2,1
Mon Sep 26 15:19:24 2016,3559,-4800,390,6512,192,1101,-288,15369,1041,1020,438,0,0,0,199,206,136,2,1
Mon Sep 26 15:19:24 2016,3569,-4554,668,6632,189,1266,-281,15376,1041,1019,440,0,0,0,199,206,136,2,1
Mon Sep 26 15:19:24 2016,3579,-4710,810,6400,190,1480,-295,15387,1041,1020,440,0,0,0,199,206,136,2,1
Mon Sep 26 15:19:24 2016,3590,-4616,524,6592,188,1675,-281,15365,1040,1018,441,0,0,0,199,206,136,2,1
Mon Sep 26 15:19:24 2016,3599,-4534,720,6612,209,1961,-244,15399,1042,1020,442,0,0,0,199,206,136,2,1
Mon Sep 26 15:19:24 2016,3610,-4816,564,6532,236,2249,-253,15403,1040,1016,441,0,0,0,199,206,136,2,1
Mon Sep 26 15:19:24 2016,3619,-5482,790,6502,234,2688,-278,15404,1041,1016,442,0,0,0,199,206,136,2,1
Mon Sep 26 15:19:24 2016,3630,-4766,1106,6304,451,3288,-397,15447,1038,1012,441,0,0,0,199,206,136,2,1
Mon Sep 26 15:19:24 2016,3639,-5298,596,6618,548,3565,-236,15403,1041,1008,439,0,0,0,199,206,136,2,1
Mon Sep 26 15:19:24 2016,3650,-5378,558,6656,461,3837,-213,15425,1037,1001,440,0,0,0,199,206,135,2,1
Mon Sep 26 15:19:24 2016,3659,-5818,760,6490,400,4547,-195,15410,1032,991,438,0,0,0,199,206,136,2,1
Mon Sep 26 15:19:24 2016,3670,-4446,796,6450,24,5031,-170,15401,1023,981,442,0,0,0,199,206,135,2,1
Mon Sep 26 15:19:24 2016,3680,-11664,-24,6314,-164,6536,368,15419,1014,974,440,0,0,0,199,206,136,2,1
Mon Sep 26 15:19:24 2016,3690,-6436,330,8148,-386,7325,257,15422,1007,969,439,0,0,0,199,206,136,2,1
Mon Sep 26 15:19:24 2016,3700,-1606,-124,5386,-526,8612,13,15404,1002,954,455,0,0,0,199,206,135,2,1
Mon Sep 26 15:19:24 2016,3710,-7976,2600,9096,-690,9475,-460,15384,977,890,440,0,0,0,199,206,135,2,1
Mon Sep 26 15:19:24 2016,3720,-7112,2154,8320,-361,10924,-977,15371,926,814,438,0,0,0,199,206,135,2,1
Mon Sep 26 15:19:25 2016,3730,-2992,-244,8784,35,11696,-1216,15338,859,784,440,0,0,0,199,206,137,2,1
Mon Sep 26 15:19:25 2016,3740,-5840,574,8152,48,13154,-485,15310,859,835,438,0,0,0,199,206,137,2,1
Mon Sep 26 15:19:25 2016,3750,-2858,3304,8824,377,16376,67,15309,894,883,437,0,0,0,199,206,137,2,1
Mon Sep 26 15:19:25 2016,3760,-13766,4094,9018,1565,17457,-95,15315,928,962,454,0,0,0,199,206,137,2,1
Mon Sep 26 15:19:25 2016,3770,-14998,3712,6638,2163,17686,-414,15293,928,978,442,0,0,0,199,206,137,2,1
Mon Sep 26 15:19:25 2016,3780,-18672,3990,13684,3336,17669,-1073,15346,935,983,445,0,0,0,199,206,136,2,1
Mon Sep 26 15:19:25 2016,3790,-17140,4250,8378,4022,16661,-1952,15305,922,952,442,0,0,0,199,206,136,2,1
Mon Sep 26 15:19:25 2016,3800,-13654,5110,18282,5382,14996,-3161,15283,876,927,446,0,0,0,199,206,136,2,1
Mon Sep 26 15:19:25 2016,3810,-12140,-310,12768,7940,13245,-2356,15278,825,800,444,0,0,0,199,206,137,2,1
Mon Sep 26 15:19:25 2016,3820,-13362,1282,20106,6347,10243,-2648,15297,991,891,445,0,0,0,199,206,137,2,1
Mon Sep 26 15:19:25 2016,3830,-23584,4748,20288,4395,7172,-2988,15349,1012,985,441,0,0,0,199,206,136,2,1
Mon Sep 26 15:19:25 2016,3839,-32768,12346,25866,5192,4718,-3436,15326,1018,995,439,0,0,0,199,206,137,2,1
Mon Sep 26 15:19:25 2016,3850,-12966,14896,32767,5448,-822,-2525,15381,1016,987,441,0,0,0,199,206,135,2,1
Mon Sep 26 15:19:25 2016,3860,-5358,11922,24384,1174,-6223,-2611,15405,1016,981,438,0,0,0,199,206,135,2,1
Mon Sep 26 15:19:25 2016,3870,-1062,8810,15064,-535,-8371,-2351,15390,1016,979,439,0,0,0,199,206,136,2,1
Mon Sep 26 15:19:25 2016,3880,46,5794,11032,-1916,-8798,-2243,15382,1016,973,438,0,0,0,199,206,135,2,1
Mon Sep 26 15:19:25 2016,3890,340,3614,8188,-2051,-8870,-1867,15357,1016,970,441,0,0,0,199,206,135,2,1
Mon Sep 26 15:19:25 2016,3900,-1152,3686,7392,-1424,-9395,-1359,15374,1016,967,437,0,0,0,199,206,136,2,1
Mon Sep 26 15:19:25 2016,3910,-3092,3616,7496,-976,-9997,-975,15367,1014,964,442,0,0,0,199,206,135,2,1
Mon Sep 26 15:19:25 2016,3920,-3708,3866,7124,-496,-10823,-391,15355,1014,960,446,0,0,0,199,206,135,2,1
Mon Sep 26 15:19:25 2016,3930,-4326,4292,6390,-394,-11191,-114,15402,1014,959,442,0,0,0,199,206,135,2,1
Mon Sep 26 15:19:25 2016,3940,-5072,4708,6440,-575,-11611,69,15354,1013,958,438,0,0,0,199,206,135,2,1
Mon Sep 26 15:19:25 2016,3950,-6288,3554,5470,-878,-12022,168,15369,1014,958,443,0,0,0,199,206,135,2,1
Mon Sep 26 15:19:25 2016,3960,-6614,3942,7010,-696,-12648,334,15362,1014,958,445,0,0,0,199,206,135,2,1
Mon Sep 26 15:19:25 2016,3970,-6902,3362,5174,-545,-12520,381,15369,1014,958,442,0,0,0,199,206,136,2,1
Mon Sep 26 15:19:25 2016,3980,-6288,2898,4720,246,-12451,730,15320,1013,958,438,0,0,0,199,206,135,2,1
Mon Sep 26 15:19:25 2016,3990,-6546,2266,4300,1028,-12127,1080,15312,1014,958,440,0,0,0,199,206,135,2,1
Mon Sep 26 15:19:25 2016,3999,-7156,2174,5068,2236,-11549,1677,15323,1014,958,445,0,0,0,199,206,135,2,1
Mon Sep 26 15:19:25 2016,4010,-8856,2932,6516,2829,-11310,2064,15296,1014,959,439,0,0,0,199,206,135,2,1
Mon Sep 26 15:19:25 2016,4019,-9754,3396,7674,3112,-11218,2640,15338,1014,959,454,0,0,0,199,206,135,2,1
Mon Sep 26 15:19:25 2016,4030,-10862,3908,8240,2998,-11230,3009,15311,1014,959,442,0,0,0,199,206,136,2,1
Mon Sep 26 15:19:25 2016,4040,-10892,4024,8538,2632,-11181,3679,15321,1013,958,444,0,0,0,199,206,135,2,1
Mon Sep 26 15:19:25 2016,4050,-10666,4344,9296,2279,-11041,4195,15339,1013,958,442,0,0,0,199,206,136,2,1
Mon Sep 26 15:19:25 2016,4060,-10826,2960,9540,1946,-10680,4946,15396,1011,955,438,0,0,0,199,206,135,2,1
Mon Sep 26 15:19:25 2016,4070,-11052,1156,10630,2021,-10464,5445,15394,1012,953,442,0,0,0,199,206,135,2,1
Mon Sep 26 15:19:25 2016,4080,-12296,192,12134,2411,-10157,6055,15367,1009,949,441,0,0,0,199,206,135,2,1
Mon Sep 26 15:19:25 2016,4090,-13622,158,13428,2675,-10116,6327,15321,1009,947,442,0,0,0,199,206,135,2,1
Mon Sep 26 15:19:25 2016,4100,-14996,604,14428,2713,-10304,6278,15375,1007,945,442,0,0,0,199,206,135,2,1
Mon Sep 26 15:19:25 2016,4110,-16684,1286,15088,2501,-10507,5997,15445,1007,943,442,0,0,0,199,206,135,2,1
Mon Sep 26 15:19:25 2016,4120,-17860,1372,15620,2026,-10858,5255,15364,1006,940,442,0,0,0,199,206,135,2,1
Mon Sep 26 15:19:25 2016,4130,-19936,2200,14078,1815,-11222,4729,15383,1006,939,444,0,0,0,199,206,135,2,1
Mon Sep 26 15:19:25 2016,4140,-21374,680,11340,1861,-11348,3494,15419,1005,938,441,0,0,0,199,206,136,2,1
Mon Sep 26 15:19:25 2016,4150,-21632,-184,5984,2330,-11341,2747,15340,1005,937,442,0,0,0,199,206,136,2,1
Mon Sep 26 15:19:25 2016,4160,-21006,-1816,2306,4127,-10387,2118,15341,1004,936,441,0,0,0,199,206,136,2,1
Mon Sep 26 15:19:25 2016,4170,-20446,-4522,-2874,5800,-9313,2276,15416,1005,938,442,0,0,0,199,206,136,2,1
Mon Sep 26 15:19:25 2016,4180,-23074,-8086,-5234,8430,-7728,3533,14692,997,936,440,0,0,0,199,206,136,2,1
Mon Sep 26 15:19:25 2016,4190,-28812,-6900,-12188,9169,-7073,4375,14650,1008,950,439,0,0,0,199,206,136,2,1
Mon Sep 26 15:19:25 2016,4199,-27972,-5094,-16232,6873,-5337,4281,15092,1008,958,440,0,0,0,199,206,135,2,1
Mon Sep 26 15:19:25 2016,4210,-22894,-3518,-18928,3675,-3028,3194,15298,1013,961,442,0,0,0,199,206,135,2,1
Mon Sep 26 15:19:25 2016,4219,-18850,-2490,-17128,-1927,1335,520,15358,1014,962,438,0,0,0,199,206,135,2,1
Mon Sep 26 15:19:25 2016,4230,-18918,-2768,-7590,-4640,3579,-1202,15301,1012,959,442,0,0,0,199,206,136,2,1
Mon Sep 26 15:19:25 2016,4239,-19894,-3042,-616,-5609,4729,-2508,15296,1010,958,446,0,0,0,199,206,136,2,1
Mon Sep 26 15:19:25 2016,4250,-20080,-3098,4574,-4320,4202,-2355,15389,1012,959,442,0,0,0,199,206,136,2,1
Mon Sep 26 15:19:25 2016,4260,-12916,-60,5218,-1922,3231,-1267,15324,1012,962,441,0,0,0,199,206,135,2,1
Mon Sep 26 15:19:25 2016,4270,-9326,2330,5088,-913,3183,-617,15418,1011,960,443,0,0,0,199,206,135,2,1
Mon Sep 26 15:19:25 2016,4280,20084,9178,21476,-4962,5148,-490,15362,1003,947,442,0,0,0,199,206,135,2,1
Mon Sep 26 15:19:25 2016,4290,4906,4898,-7330,-5457,8356,-988,15383,1006,947,443,0,0,0,199,206,136,2,1
Mon Sep 26 15:19:25 2016,4300,11144,-12220,-454,-6761,10212,-3660,15316,1008,958,440,0,0,0,199,206,136,2,1
Mon Sep 26 15:19:25 2016,4310,-7284,-17934,13552,-2851,11662,-1354,15267,1012,964,442,0,0,0,199,206,136,2,1
Mon Sep 26 15:19:25 2016,4319,-21530,-13258,20212,-1211,11349,-434,15266,1014,969,442,0,0,0,199,206,136,2,1
Mon Sep 26 15:19:25 2016,4329,-13694,-3228,15058,-190,10718,-1838,15376,1025,980,442,0,0,0,199,206,136,2,1
Mon Sep 26 15:19:25 2016,4339,-15102,10126,9912,-342,9179,-1165,15258,1031,990,438,0,0,0,199,206,136,2,1
Mon Sep 26 15:19:25 2016,4350,-17606,15920,8852,-4214,8271,-1261,15313,1036,1001,442,0,0,0,199,206,136,2,1
Mon Sep 26 15:19:25 2016,4360,-10874,-10278,10936,-2830,4791,-1242,15352,1037,1004,440,0,0,0,199,206,136,2,1
Mon Sep 26 15:19:25 2016,4370,-5168,-9340,5774,-1522,3688,-1419,15343,1037,1007,442,0,0,0,199,206,136,2,1
Mon Sep 26 15:19:25 2016,4379,-6498,8070,8680,-1617,2283,-629,15330,1040,1011,439,0,0,0,199,206,136,2,1
Mon Sep 26 15:19:25 2016,4389,-7878,-1102,7904,-2147,1572,-1118,15348,1041,1012,441,0,0,0,199,206,135,2,1
Mon Sep 26 15:19:25 2016,4400,-5268,-200,9358,-1997,816,-1041,15332,1043,1015,441,0,0,0,199,206,135,2,1
Mon Sep 26 15:19:25 2016,4410,-5006,1574,7998,-1663,569,-942,15340,1044,1016,440,0,0,0,199,206,136,2,1
Mon Sep 26 15:19:25 2016,4420,-4706,722,7678,-1175,366,-743,15326,1045,1021,440,0,0,0,199,206,136,2,1
Mon Sep 26 15:19:25 2016,4430,-4496,1614,7402,-1044,305,-631,15338,1046,1021,438,0,0,0,199,206,136,2,1
Mon Sep 26 15:19:25 2016,4440,-4338,322,7768,-703,233,-504,15325,1046,1023,441,0,0,0,199,206,136,2,1
Mon Sep 26 15:19:25 2016,4450,-3798,652,7406,-486,208,-425,15325,1044,1022,437,0,0,0,199,206,136,2,1
Mon Sep 26 15:19:25 2016,4460,-4190,128,7386,-225,339,-227,15319,1046,1023,440,0,0,0,199,206,136,2,1
Mon Sep 26 15:19:25 2016,4470,-3282,650,7312,-177,423,-131,15330,1045,1024,438,0,0,0,199,206,136,2,1
Mon Sep 26 15:19:25 2016,4480,-2846,254,7260,-146,697,-58,15290,1047,1027,445,0,0,0,199,206,136,2,1
Mon Sep 26 15:19:25 2016,4490,-3058,280,7232,-118,927,-38,15288,1047,1029,446,0,0,0,199,206,136,2,1
Mon Sep 26 15:19:25 2016,4499,-4100,670,6990,-29,1331,37,15289,1048,1030,437,0,0,0,199,206,136,2,1
Mon Sep 26 15:19:25 2016,4509,-4078,1058,7248,-90,1364,14,15288,1049,1033,445,0,0,0,199,206,135,2,1
Mon Sep 26 15:19:25 2016,4520,-4064,928,6950,-42,1544,-108,15294,1048,1033,438,0,0,0,199,206,136,2,1
Mon Sep 26 15:19:25 2016,4529,-4636,1642,7176,-29,1503,-65,15291,1048,1034,437,0,0,0,199,206,135,2,1
Mon Sep 26 15:19:25 2016,4539,-4660,1138,7052,-36,1488,-130,15295,1049,1035,445,0,0,0,199,206,136,2,1
Mon Sep 26 15:19:25 2016,4549,-2628,884,7324,90,1791,-185,15263,1049,1035,446,0,0,0,199,206,135,2,1
Mon Sep 26 15:19:25 2016,4560,-4416,494,7200,171,2180,-171,15290,1050,1035,441,0,0,0,199,206,135,2,1
Mon Sep 26 15:19:25 2016,4569,-4914,302,6766,263,2108,-49,15256,1049,1037,438,0,0,0,199,206,136,2,1
Mon Sep 26 15:19:25 2016,4580,-4304,1428,6370,266,2005,27,15308,1050,1038,446,0,0,0,199,206,135,2,1
Mon Sep 26 15:19:25 2016,4589,-4684,938,6334,297,1906,36,15284,1053,1038,440,0,0,0,199,206,136,2,1
Mon Sep 26 15:19:25 2016,4599,-4638,1306,6520,321,1862,20,15321,1051,1038,446,0,0,0,199,206,135,2,1
Mon Sep 26 15:19:25 2016,4609,-4762,1204,6178,308,1801,-70,15328,1053,1037,440,0,0,0,199,206,135,2,1
Mon Sep 26 15:19:25 2016,4619,-4186,1214,6436,303,1788,-140,15325,1051,1034,437,0,0,0,199,206,136,2,1
Mon Sep 26 15:19:25 2016,4629,-4898,1066,6140,312,1812,-273,15363,1051,1031,438,0,0,0,199,206,135,2,1
Mon Sep 26 15:19:25 2016,4639,-5134,1016,6138,299,1641,-374,15336,1050,1027,438,0,0,0,199,206,135,2,1
Mon Sep 26 15:19:25 2016,4650,-4774,1006,6180,251,1408,-501,15328,1049,1023,438,0,0,0,199,206,135,2,1
Mon Sep 26 15:19:25 2016,4660,-4762,962,6158,149,1325,-662,15322,1047,1020,442,0,0,0,199,206,135,2,1
Mon Sep 26 15:19:25 2016,4670,-5180,878,5880,79,1239,-722,15327,1047,1021,438,0,0,0,199,206,136,2,1
Mon Sep 26 15:19:25 2016,4680,-5058,760,6188,37,1132,-774,15355,1045,1019,440,0,0,0,199,206,135,2,1
Mon Sep 26 15:19:25 2016,4689,-5330,622,6138,-27,963,-720,15339,1045,1020,439,0,0,0,199,206,134,2,1
Mon Sep 26 15:19:25 2016,4699,-5094,612,6316,43,915,-722,15349,1043,1022,448,0,0,0,199,206,135,2,1
Mon Sep 26 15:19:25 2016,4709,-4984,882,6660,38,991,-645,15331,1043,1021,439,0,0,0,199,206,135,2,1
Mon Sep 26 15:19:25 2016,4720,-5100,716,6518,113,1297,-588,15325,1043,1022,439,0,0,0,199,206,135,2,1
Mon Sep 26 15:19:26 2016,4729,-5088,842,6486,243,1522,-550,15280,1042,1022,438,0,0,0,199,206,135,2,1
Mon Sep 26 15:19:26 2016,4739,-5052,228,6206,314,1752,-585,15286,1042,1020,438,0,0,0,199,206,134,2,1
Mon Sep 26 15:19:26 2016,4749,-4984,514,6268,339,2001,-412,15304,1042,1018,442,0,0,0,199,206,135,2,1
Mon Sep 26 15:19:26 2016,4760,-5036,872,6346,334,2249,-334,15292,1040,1014,438,0,0,0,199,206,135,2,1
Mon Sep 26 15:19:26 2016,4770,-5398,992,6488,317,2665,-350,15403,1039,1006,441,0,0,0,199,206,135,2,1
Mon Sep 26 15:19:26 2016,4779,-5906,866,6462,376,2970,-375,15311,1035,998,446,0,0,0,199,206,135,2,1
Mon Sep 26 15:19:26 2016,4789,-5260,338,6596,189,3470,-306,15316,1029,988,439,0,0,0,199,206,135,2,1
Mon Sep 26 15:19:26 2016,4799,-4066,-514,8820,477,4425,-209,15376,1021,981,438,0,0,0,199,206,135,2,1
Mon Sep 26 15:19:26 2016,4809,-2920,-374,6806,-225,5225,-54,15304,1013,971,438,0,0,0,199,206,135,2,1
Mon Sep 26 15:19:26 2016,4819,-3546,-132,6796,-325,5908,89,15281,1005,962,440,0,0,0,199,206,135,2,1
Mon Sep 26 15:19:26 2016,4829,-4214,642,6472,-534,7182,-145,15295,997,943,437,0,0,0,199,206,135,2,1
Mon Sep 26 15:19:26 2016,4840,-6370,1752,7038,-479,7866,-336,15364,977,906,438,0,0,0,199,206,136,2,1
Mon Sep 26 15:19:26 2016,4849,-4086,1232,8310,-361,9116,-554,15337,943,836,438,0,0,0,199,206,135,2,1
Mon Sep 26 15:19:26 2016,4859,-5308,1726,11202,-305,9978,-827,15399,881,789,439,0,0,0,199,206,135,2,1
Mon Sep 26 15:19:26 2016,4870,-4288,968,5832,32,11546,-552,15312,852,806,438,0,0,0,199,206,135,2,1
Mon Sep 26 15:19:26 2016,4879,4016,-1270,18452,331,12295,-488,15303,866,862,439,0,0,0,199,206,135,2,1
Mon Sep 26 15:19:26 2016,4889,-5328,130,9874,1383,15937,385,15297,901,886,442,0,0,0,199,206,135,2,1
Mon Sep 26 15:19:26 2016,4899,-15744,3980,7874,1894,16315,319,15289,906,953,437,0,0,0,199,206,135,2,1
Mon Sep 26 15:19:26 2016,4909,-17122,4256,6810,3159,17234,-1042,15278,906,960,437,0,0,0,199,206,135,2,1
Mon Sep 26 15:19:26 2016,4919,-18294,2314,12412,4876,17051,-1338,15271,906,960,442,0,0,0,199,206,135,2,1
Mon Sep 26 15:19:26 2016,4930,-17388,5804,9526,5364,15627,-2434,15375,925,886,437,0,0,0,199,206,135,2,1
Mon Sep 26 15:19:26 2016,4939,-18112,5222,13030,5814,13660,-3685,15271,865,901,443,0,0,0,199,206,135,2,1
Mon Sep 26 15:19:26 2016,4949,-14220,1502,14208,7563,11601,-3468,15309,865,737,441,0,0,0,199,206,135,2,1
Mon Sep 26 15:19:26 2016,4960,-11466,1264,16224,6822,9053,-3915,15356,998,971,441,0,0,0,199,206,136,2,1
Mon Sep 26 15:19:26 2016,4970,-32768,2794,19244,4447,5838,-3952,15378,1027,991,446,0,0,0,199,206,135,2,1
Mon Sep 26 15:19:26 2016,4980,-18674,13570,32746,5016,6593,-4073,15386,1022,986,438,0,0,0,199,206,135,2,1
Mon Sep 26 15:19:26 2016,4990,-14714,12232,27210,3154,-63,-3756,15351,1024,982,447,0,0,0,199,206,135,2,1
Mon Sep 26 15:19:26 2016,5000,-2696,11918,21592,859,-3419,-3013,15329,1024,980,439,0,0,0,199,206,135,2,1
Mon Sep 26 15:19:26 2016,5010,142,8464,12458,-1547,-6161,-2539,15331,1024,977,445,0,0,0,199,206,135,2,1
Mon Sep 26 15:19:26 2016,5020,1478,5588,9034,-2309,-6336,-2419,15316,1025,976,437,0,0,0,199,206,135,2,1
Mon Sep 26 15:19:26 2016,5030,1264,2998,7920,-2118,-6407,-1903,15318,1024,972,444,0,0,0,199,206,135,2,1
Mon Sep 26 15:19:26 2016,5039,-2100,3012,7900,-1450,-7050,-1427,15243,1024,970,438,0,0,0,199,206,135,2,1
Mon Sep 26 15:19:26 2016,5049,-2738,3190,8114,-361,-8522,-526,15252,1024,965,436,0,0,0,199,206,135,2,1
Mon Sep 26 15:19:26 2016,5059,-2198,3652,7302,117,-9447,-37,15346,1024,963,438,0,0,0,199,206,135,2,1
Mon Sep 26 15:19:26 2016,5069,-1692,4172,6006,325,-10162,404,15251,1022,960,445,0,0,0,199,206,135,2,1
Mon Sep 26 15:19:26 2016,5079,-2444,4398,5990,89,-10360,540,15280,1022,961,438,0,0,0,199,206,135,2,1
Mon Sep 26 15:19:26 2016,5090,-4792,3784,4846,-365,-10915,782,15286,1022,959,445,0,0,0,199,206,136,2,1
Mon Sep 26 15:19:26 2016,5099,-4844,3254,6668,-486,-11132,749,15303,1022,962,440,0,0,0,199,206,136,2,1
Mon Sep 26 15:19:26 2016,5110,-5376,2768,6076,-497,-11606,999,15285,1022,961,438,0,0,0,199,206,135,2,1
Mon Sep 26 15:19:26 2016,5119,-5274,2558,6436,68,-11817,1384,15298,1023,963,441,0,0,0,199,206,136,2,1
Mon Sep 26 15:19:26 2016,5129,-6202,2148,6252,643,-11824,1727,15324,1022,963,437,0,0,0,199,206,135,2,1
Mon Sep 26 15:19:26 2016,5140,-7022,2122,6430,1553,-11825,2218,15286,1021,964,449,0,0,0,199,206,135,2,1
Mon Sep 26 15:19:26 2016,5150,-7720,2290,6738,2048,-11736,2557,15281,1021,964,440,0,0,0,199,206,136,2,1
Mon Sep 26 15:19:26 2016,5160,-8532,2722,7128,2311,-11606,2833,15280,1021,964,439,0,0,0,199,206,136,2,1
Mon Sep 26 15:19:26 2016,5170,-9896,3194,8676,2304,-11477,3237,15319,1019,963,446,0,0,0,199,206,136,2,1
Mon Sep 26 15:19:26 2016,5179,-10232,2680,8764,2158,-11402,3561,15305,1020,961,438,0,0,0,199,206,135,2,1
Mon Sep 26 15:19:26 2016,5189,-10388,1976,7836,2069,-11105,4058,15266,1017,958,438,0,0,0,199,206,135,2,1
Mon Sep 26 15:19:26 2016,5200,-9758,2446,8958,2014,-10743,4477,15274,1018,957,442,0,0,0,199,206,135,2,1
Mon Sep 26 15:19:26 2016,5210,-11414,2476,10340,1898,-10120,5093,15268,1017,954,438,0,0,0,199,206,135,2,1
Mon Sep 26 15:19:26 2016,5220,-12688,2868,12212,1750,-9844,5406,15268,1015,952,438,0,0,0,199,206,135,2,1
Mon Sep 26 15:19:26 2016,5230,-15210,2820,15262,1266,-9854,5709,15253,1014,948,437,0,0,0,199,206,135,2,1
Mon Sep 26 15:19:26 2016,5239,-16540,2392,16554,1000,-10064,5782,15242,1012,948,437,0,0,0,199,206,135,2,1
Mon Sep 26 15:19:26 2016,5249,-17704,1346,16274,865,-10502,5680,15229,1011,945,447,0,0,0,199,206,135,2,1
Mon Sep 26 15:19:26 2016,5259,-19240,578,14970,1134,-10654,5527,15214,1011,944,437,0,0,0,199,206,135,2,1
Mon Sep 26 15:19:26 2016,5269,-22420,1026,12416,1759,-10873,5069,15233,1009,942,447,0,0,0,199,206,135,2,1
Mon Sep 26 15:19:26 2016,5280,-23952,2058,10852,1882,-10985,4404,15260,1010,942,438,0,0,0,199,206,135,2,1
Mon Sep 26 15:19:26 2016,5290,-23570,930,6334,1928,-11077,3083,15242,1008,941,438,0,0,0,199,206,135,2,1
Mon Sep 26 15:19:26 2016,5299,-22460,-1074,2138,2449,-10847,2519,15242,1009,941,438,0,0,0,199,206,135,2,1
Mon Sep 26 15:19:26 2016,5310,-20298,-5622,-4216,4378,-9633,2641,15229,1008,942,440,0,0,0,199,206,135,2,1
Mon Sep 26 15:19:26 2016,5319,-23676,-11410,-8568,6479,-8487,3597,15239,1009,941,440,0,0,0,199,206,135,2,1
Mon Sep 26 15:19:26 2016,5329,-29140,-8738,-15660,9345,-7371,5082,15255,1007,943,438,0,0,0,199,206,135,2,1
Mon Sep 26 15:19:26 2016,5339,-28854,-7188,-18234,9165,-6511,5051,15215,1011,949,438,0,0,0,199,206,135,2,1
Mon Sep 26 15:19:26 2016,5349,-22444,-4520,-19568,6043,-3866,3664,15277,1013,953,438,0,0,0,199,206,135,2,1
Mon Sep 26 15:19:26 2016,5360,-17150,-2566,-17222,469,386,581,15285,1013,953,440,0,0,0,199,206,136,2,1
Mon Sep 26 15:19:26 2016,5370,-14220,-1272,-10822,-3386,3039,-1679,15263,1012,952,438,0,0,0,199,206,136,2,1
Mon Sep 26 15:19:26 2016,5380,-16590,-1302,-3478,-5817,4885,-3347,15319,1012,949,438,0,0,0,199,206,135,2,1
Mon Sep 26 15:19:26 2016,5390,-20488,-4332,6558,-5375,4888,-3766,15275,1010,950,440,0,0,0,199,206,135,2,1
Mon Sep 26 15:19:26 2016,5400,14602,-5486,13046,-4687,5875,-3195,15291,1010,945,443,0,0,0,199,206,136,2,1
Mon Sep 26 15:19:26 2016,5410,-6574,8694,-466,-5780,7912,-3133,15262,1010,945,438,0,0,0,199,206,135,2,1
Mon Sep 26 15:19:26 2016,5420,10430,-7614,7588,-5726,7854,-4438,15244,1012,950,447,0,0,0,199,206,135,2,1
Mon Sep 26 15:19:26 2016,5430,-1418,-18676,3730,-1456,12114,-1175,15272,1011,955,438,0,0,0,199,206,135,2,1
Mon Sep 26 15:19:26 2016,5440,-24502,-7904,21012,-246,12493,-992,15255,1017,960,440,0,0,0,199,206,136,2,1
Mon Sep 26 15:19:26 2016,5449,-20694,3702,13902,-604,10837,-1810,15264,1024,970,447,0,0,0,199,206,136,2,1
Mon Sep 26 15:19:26 2016,5460,-21392,21898,20410,-3172,9139,-1113,15252,1033,989,437,0,0,0,199,206,135,2,1
Mon Sep 26 15:19:26 2016,5469,-4698,-4156,11208,-4526,5786,-1765,15271,1033,994,438,0,0,0,199,206,136,2,1
Mon Sep 26 15:19:26 2016,5480,-18410,-18282,15788,-1283,4050,-1742,15260,1032,995,438,0,0,0,199,206,136,2,1
Mon Sep 26 15:19:26 2016,5489,-698,6292,6130,-1217,2660,-420,15247,1036,998,447,0,0,0,199,206,136,2,1
Mon Sep 26 15:19:26 2016,5500,-7550,10036,7120,-2919,1898,-1270,15240,1039,1006,438,0,0,0,199,206,135,2,1
Mon Sep 26 15:19:26 2016,5509,-6224,-3098,7842,-2393,951,-1804,15269,1040,1008,436,0,0,0,199,206,135,2,1
Mon Sep 26 15:19:26 2016,5520,-4494,1854,8988,-2247,243,-1391,15222,1040,1012,445,0,0,0,199,206,135,2,1
Mon Sep 26 15:19:26 2016,5530,-4734,820,7830,-1660,419,-955,15268,1041,1014,444,0,0,0,199,206,135,2,1
Mon Sep 26 15:19:26 2016,5540,-5172,290,9538,-1322,94,-1006,15238,1040,1017,446,0,0,0,199,206,135,2,1
Mon Sep 26 15:19:26 2016,5550,-5158,1702,8142,-830,-178,-650,15262,1041,1016,446,0,0,0,199,206,136,2,1
Mon Sep 26 15:19:26 2016,5560,-4512,1166,6800,-699,-248,-564,15253,1039,1017,441,0,0,0,199,206,135,2,1
Mon Sep 26 15:19:26 2016,5569,-4320,818,7178,-756,-230,-551,15273,1040,1016,439,0,0,0,199,206,136,2,1
Mon Sep 26 15:19:26 2016,5579,-3600,226,7326,-696,-232,-536,15256,1039,1016,441,0,0,0,199,206,135,2,1
Mon Sep 26 15:19:26 2016,5589,-3630,554,7102,-644,-47,-409,15246,1040,1016,438,0,0,0,199,206,135,2,1
Mon Sep 26 15:19:26 2016,5600,-3432,810,7216,-546,86,-339,15291,1039,1016,447,0,0,0,199,206,135,2,1
Mon Sep 26 15:19:26 2016,5609,-5360,-16,7528,-440,307,-310,15295,1040,1016,441,0,0,0,199,206,135,2,1
Mon Sep 26 15:19:26 2016,5620,-4900,402,7056,-306,297,-132,15322,1038,1016,446,0,0,0,199,206,135,2,1
Mon Sep 26 15:19:26 2016,5629,-3756,504,6992,-123,495,-81,15334,1039,1016,439,0,0,0,199,206,136,2,1
Mon Sep 26 15:19:26 2016,5640,-3838,524,7262,-92,461,-16,15292,1038,1015,438,0,0,0,199,206,135,2,1
Mon Sep 26 15:19:26 2016,5650,-4018,1220,7150,-60,508,-54,15299,1039,1016,438,0,0,0,199,206,135,2,1
Mon Sep 26 15:19:26 2016,5660,-3990,1112,7010,-38,497,-63,15275,1037,1014,438,0,0,0,199,206,135,2,1
Mon Sep 26 15:19:26 2016,5669,-4038,1052,6966,24,412,-110,15299,1038,1015,439,0,0,0,199,206,136,2,1
Mon Sep 26 15:19:26 2016,5680,-3844,870,6960,47,373,-115,15331,1038,1014,438,0,0,0,199,206,135,2,1
Mon Sep 26 15:19:26 2016,5690,-3778,722,7034,98,397,-142,15296,1037,1015,446,0,0,0,199,206,136,2,1
Mon Sep 26 15:19:26 2016,5700,-3842,536,7096,135,482,-109,15276,1038,1014,445,0,0,0,199,206,135,2,1
Mon Sep 26 15:19:26 2016,5710,-4044,514,6934,161,564,-56,15299,1038,1015,447,0,0,0,199,206,135,2,1
Mon Sep 26 15:19:26 2016,5720,-4116,610,6872,150,529,-30,15306,1037,1015,444,0,0,0,199,206,135,2,1
Mon Sep 26 15:19:27 2016,5730,-4058,868,6884,150,456,-26,15269,1038,1014,444,0,0,0,199,206,135,2,1
Mon Sep 26 15:19:27 2016,5740,-4012,858,6868,143,384,-48,15229,1037,1014,439,0,0,0,199,206,135,2,1
Mon Sep 26 15:19:27 2016,5750,-4066,822,6760,152,368,-69,15224,1038,1014,446,0,0,0,199,206,136,2,1
Mon Sep 26 15:19:27 2016,5760,-4166,1010,6800,112,307,-113,15254,1038,1013,439,0,0,0,199,206,136,2,1
Mon Sep 26 15:19:27 2016,5769,-4006,996,6704,98,191,-134,15260,1038,1013,439,0,0,0,199,206,136,2,1
Mon Sep 26 15:19:27 2016,5779,-3996,992,6930,69,123,-177,15286,1037,1013,439,0,0,0,199,206,136,2,1
Mon Sep 26 15:19:27 2016,5789,-4018,846,6844,66,80,-202,15220,1038,1012,439,0,0,0,199,206,135,2,1
Mon Sep 26 15:19:27 2016,5799,-4070,780,6980,78,56,-231,15222,1036,1012,438,0,0,0,199,206,135,2,1
Mon Sep 26 15:19:27 2016,5810,-4042,530,7202,92,149,-213,15231,1038,1012,445,0,0,0,199,206,135,2,1
Mon Sep 26 15:19:27 2016,5820,-4044,730,7160,47,206,-191,15232,1038,1015,439,0,0,0,199,206,135,2,1
Mon Sep 26 15:19:27 2016,5829,-3922,842,7012,48,285,-183,15268,1039,1015,437,0,0,0,199,206,136,2,1
Mon Sep 26 15:19:27 2016,5839,-3914,712,7012,64,372,-188,15203,1038,1017,437,0,0,0,199,206,135,2,1
Mon Sep 26 15:19:27 2016,5849,-3756,724,7010,90,596,-208,15278,1040,1019,441,0,0,0,199,206,135,2,1
Mon Sep 26 15:19:27 2016,5860,-3758,974,7100,145,816,-232,15277,1040,1020,442,0,0,0,199,206,135,2,1
Mon Sep 26 15:19:27 2016,5869,-4224,612,7008,165,969,-248,15281,1041,1021,439,0,0,0,199,206,135,2,1
Mon Sep 26 15:19:27 2016,5880,-4006,810,7170,213,1014,-245,15292,1040,1023,447,0,0,0,199,206,135,2,1
Mon Sep 26 15:19:27 2016,5890,-4040,820,7028,253,1252,-268,15263,1041,1023,445,0,0,0,199,206,135,2,1
Mon Sep 26 15:19:27 2016,5900,-4092,634,7090,326,1405,-309,15272,1043,1024,438,0,0,0,199,206,135,2,1
Mon Sep 26 15:19:27 2016,5911,-3872,514,7052,323,1713,-268,15262,1043,1025,439,0,0,0,199,206,135,2,1
Mon Sep 26 15:19:27 2016,5920,-4198,636,6820,323,1924,-337,15252,1045,1025,441,0,0,0,199,206,135,2,1
Mon Sep 26 15:19:27 2016,5931,-3950,386,7238,278,2191,-266,15287,1046,1025,438,0,0,0,199,206,136,2,1
Mon Sep 26 15:19:27 2016,5941,-4090,360,7382,213,2474,-148,15258,1047,1025,440,0,0,0,199,206,135,2,1
Mon Sep 26 15:19:27 2016,5950,-4104,642,7000,135,2926,-55,15283,1049,1024,440,0,0,0,199,206,135,2,1
Mon Sep 26 15:19:27 2016,5961,-4362,852,7134,134,3278,-1,15251,1049,1026,438,0,0,0,199,206,135,2,1
Mon Sep 26 15:19:27 2016,5971,-4772,1082,7204,38,3961,-76,15266,1051,1024,446,0,0,0,199,206,135,2,1
Mon Sep 26 15:19:27 2016,5981,-4548,894,7090,12,4551,-160,15246,1054,1022,441,0,0,0,199,206,135,2,1
Mon Sep 26 15:19:27 2016,5990,-5828,1488,7124,288,5282,-132,15199,1053,1016,439,0,0,0,199,206,135,2,1
Mon Sep 26 15:19:27 2016,6000,-4458,112,8014,306,5948,-384,15247,1049,1004,440,0,0,0,199,206,135,2,1
Mon Sep 26 15:19:27 2016,6009,-5340,-48,7456,-593,7501,-307,15190,1036,986,438,0,0,0,199,206,135,2,1
Mon Sep 26 15:19:27 2016,6019,-4318,424,8688,-585,8509,-474,15164,1019,967,441,0,0,0,199,206,135,2,1
Mon Sep 26 15:19:27 2016,6029,-6604,880,8382,-1159,9838,-535,15193,1004,945,440,0,0,0,199,206,135,2,1
Mon Sep 26 15:19:27 2016,6040,-5040,1622,7086,-1080,10371,-694,15151,985,911,446,0,0,0,199,206,135,2,1
Mon Sep 26 15:19:27 2016,6049,-3182,932,8768,-1137,12711,-959,15184,962,883,439,0,0,0,199,206,135,2,1
Mon Sep 26 15:19:27 2016,6060,-7730,1316,6818,-825,14126,-935,15171,941,860,438,0,0,0,199,206,135,2,1
Mon Sep 26 15:19:27 2016,6069,-7970,2760,8536,514,15871,-1163,15150,918,821,441,0,0,0,199,206,135,2,1
Mon Sep 26 15:19:27 2016,6080,-7206,4590,8606,1472,16536,-1494,15189,895,777,438,0,0,0,199,206,136,2,1
Mon Sep 26 15:19:27 2016,6090,-15294,5268,9670,1922,16410,-2964,15168,878,757,442,0,0,0,199,206,135,2,1
Mon Sep 26 15:19:27 2016,6099,-15380,1892,10140,2058,15839,-3487,15195,876,757,440,0,0,0,199,206,135,2,1
Mon Sep 26 15:19:27 2016,6109,-14744,3008,10416,4141,14121,-4245,15233,874,757,438,0,0,0,199,206,135,2,1
Mon Sep 26 15:19:27 2016,6120,-13480,3388,11726,5681,12616,-5182,15211,898,788,438,0,0,0,199,206,136,2,1
Mon Sep 26 15:19:27 2016,6130,-9598,2000,15370,6334,10759,-5244,15221,949,858,439,0,0,0,199,206,136,2,1
Mon Sep 26 15:19:27 2016,6139,5772,3856,15456,4878,9230,-5462,15220,973,965,441,0,0,0,199,206,135,2,1
Mon Sep 26 15:19:27 2016,6149,-1444,4658,21538,6571,3362,-5613,15219,968,932,439,0,0,0,199,206,136,2,1
Mon Sep 26 15:19:27 2016,6159,-18962,11846,23692,3242,4059,-3961,15227,973,935,438,0,0,0,199,206,135,2,1
Mon Sep 26 15:19:27 2016,6169,-8274,10046,29044,1935,-1351,-2887,15247,977,934,441,0,0,0,199,206,136,2,1
Mon Sep 26 15:19:27 2016,6180,-3538,10002,17294,330,-3015,-2574,15275,980,929,441,0,0,0,199,206,135,2,1
Mon Sep 26 15:19:27 2016,6189,1820,8380,15014,-1331,-5344,-1812,15245,980,925,440,0,0,0,199,206,136,2,1
Mon Sep 26 15:19:27 2016,6200,1772,5014,9426,-1646,-5748,-1326,15223,981,921,440,0,0,0,199,206,136,2,1
Mon Sep 26 15:19:27 2016,6209,1394,3344,7748,-957,-6051,-487,15243,984,921,440,0,0,0,199,206,136,2,1
Mon Sep 26 15:19:27 2016,6219,-938,2410,7638,-192,-6658,95,15254,984,919,439,0,0,0,199,206,135,2,1
Mon Sep 26 15:19:27 2016,6230,-2552,3258,8072,618,-7883,973,15176,985,921,448,0,0,0,199,206,136,2,1
Mon Sep 26 15:19:27 2016,6240,-2658,3600,8244,789,-8601,1302,15156,986,922,440,0,0,0,199,206,135,2,1
Mon Sep 26 15:19:27 2016,6250,-2778,3584,7500,581,-9466,1626,15146,987,924,437,0,0,0,199,206,136,2,1
Mon Sep 26 15:19:27 2016,6260,-3312,3192,7140,293,-9849,1731,15132,988,925,436,0,0,0,199,206,135,2,1
Mon Sep 26 15:19:27 2016,6269,-4454,2670,7468,92,-10358,1719,15149,989,928,438,0,0,0,199,206,136,2,1
Mon Sep 26 15:19:27 2016,6280,-2888,1912,9516,262,-10892,1710,15169,990,929,444,0,0,0,199,206,135,2,1
Mon Sep 26 15:19:27 2016,6290,-7924,928,6498,1003,-11583,1888,15168,990,932,444,0,0,0,199,206,135,2,1
Mon Sep 26 15:19:27 2016,6300,-6434,-82,6068,1618,-11887,1956,15148,990,931,445,0,0,0,199,206,135,2,1
Mon Sep 26 15:19:27 2016,6310,-5986,92,6234,2623,-11728,2024,15154,990,932,441,0,0,0,199,206,135,2,1
Mon Sep 26 15:19:27 2016,6319,-5986,178,5838,3130,-11385,2093,15121,989,931,440,0,0,0,199,206,135,2,1
Mon Sep 26 15:19:27 2016,6330,-7032,586,6356,3658,-10833,2309,15194,989,934,438,0,0,0,199,206,135,2,1
Mon Sep 26 15:19:27 2016,6340,-8290,714,7250,3761,-10447,2553,15118,989,933,446,0,0,0,199,206,135,2,1
Mon Sep 26 15:19:27 2016,6349,-9230,782,7882,3730,-10069,3060,15202,989,934,439,0,0,0,199,206,135,2,1
Mon Sep 26 15:19:27 2016,6359,-9288,500,8170,3619,-9809,3449,15202,989,932,438,0,0,0,199,206,137,2,1
Mon Sep 26 15:19:27 2016,6369,-9146,208,8490,3440,-9223,3947,15185,989,932,440,0,0,0,199,206,137,2,1
Mon Sep 26 15:19:27 2016,6380,-9688,96,9280,3239,-8758,4067,15170,988,931,437,0,0,0,199,206,137,2,1
Mon Sep 26 15:19:27 2016,6389,-11080,344,10642,2821,-8265,3809,15183,988,932,440,0,0,0,199,206,135,2,1
Mon Sep 26 15:19:27 2016,6399,-13698,1064,12200,2471,-8281,3466,15183,988,932,438,0,0,0,199,206,137,2,1
Mon Sep 26 15:19:27 2016,6409,-15234,82,12684,2424,-8540,3023,15184,987,930,438,0,0,0,199,206,137,2,1
Mon Sep 26 15:19:27 2016,6419,-15652,640,11958,2366,-8936,2914,15205,986,928,438,0,0,0,199,206,137,2,1
Mon Sep 26 15:19:27 2016,6429,-15574,1828,10796,2241,-9288,2957,15218,986,928,437,0,0,0,199,206,137,2,1
Mon Sep 26 15:19:27 2016,6440,-14956,3144,8232,1957,-9249,3135,15185,986,927,438,0,0,0,199,206,137,2,1
Mon Sep 26 15:19:27 2016,6449,-14718,3722,7232,1576,-8739,3516,15193,986,925,437,0,0,0,199,206,137,2,1
Mon Sep 26 15:19:27 2016,6460,-15928,3838,6716,1320,-8318,3812,15250,986,925,441,0,0,0,199,206,135,2,1
Mon Sep 26 15:19:27 2016,6469,-16792,3092,6552,1319,-7899,4300,15241,987,925,440,0,0,0,199,206,137,2,1
Mon Sep 26 15:19:27 2016,6480,-16752,1410,4636,1573,-7710,4667,15191,986,924,440,0,0,0,199,206,135,2,1
Mon Sep 26 15:19:27 2016,6490,-15622,314,1546,1911,-7120,5194,15194,985,924,441,0,0,0,199,206,136,2,1
Mon Sep 26 15:19:27 2016,6499,-14976,-354,-826,1962,-6368,5491,15164,985,923,439,0,0,0,199,206,135,2,1
Mon Sep 26 15:19:27 2016,6509,-15438,-1642,-2480,1922,-4927,5844,15184,985,923,437,0,0,0,199,206,135,2,1
Mon Sep 26 15:19:27 2016,6519,-19514,-5080,-4476,2224,-4289,6105,15249,984,923,438,0,0,0,199,206,135,2,1
Mon Sep 26 15:19:27 2016,6529,-19914,-5652,-6694,2325,-3482,6000,15211,985,925,438,0,0,0,199,206,135,2,1
Mon Sep 26 15:19:27 2016,6540,-18146,-5844,-8358,1984,-2629,5513,15111,985,927,438,0,0,0,199,206,135,2,1
Mon Sep 26 15:19:27 2016,6549,-16240,-5086,-8488,801,-729,4292,15123,986,928,445,0,0,0,199,206,135,2,1
Mon Sep 26 15:19:27 2016,6559,-13742,-3468,-6552,-361,643,3301,15135,986,928,438,0,0,0,199,206,135,2,1
Mon Sep 26 15:19:27 2016,6569,-12572,-2638,-3950,-2057,2280,1914,15160,987,928,438,0,0,0,199,206,135,2,1
Mon Sep 26 15:19:27 2016,6579,-11850,-2290,288,-2591,2993,1304,15185,987,929,438,0,0,0,199,206,135,2,1
Mon Sep 26 15:19:27 2016,6589,-17144,7346,-1862,-2010,8183,-1435,15127,988,940,441,0,0,0,199,206,135,2,1
Mon Sep 26 15:19:27 2016,6600,-6934,5306,-4384,-2145,7793,-1639,15180,991,943,438,0,0,0,199,206,135,2,1
Mon Sep 26 15:19:27 2016,6609,2874,4468,16404,-2815,7805,-4390,15180,999,959,440,0,0,0,199,206,135,2,1
Mon Sep 26 15:19:27 2016,6619,6426,-1520,5512,-3328,8889,-3671,15151,1004,971,438,0,0,0,199,206,135,2,1
Mon Sep 26 15:19:27 2016,6630,-7752,-4552,8094,-715,11606,-1600,15178,1007,975,441,0,0,0,199,206,136,2,1
Mon Sep 26 15:19:27 2016,6640,-9852,-5358,14652,-24,12394,-1018,15232,1006,971,446,0,0,0,199,206,135,2,1
Mon Sep 26 15:19:27 2016,6649,-9686,-2766,10568,1292,12567,-1166,15171,1020,971,438,0,0,0,199,206,135,2,1
Mon Sep 26 15:19:27 2016,6660,-25492,21122,26382,-2035,11713,-2442,15179,1050,1017,438,0,0,0,199,206,135,2,1
Mon Sep 26 15:19:27 2016,6670,-28730,12192,5182,-6503,8842,-4046,15211,1044,1024,440,0,0,0,199,206,135,2,1
Mon Sep 26 15:19:27 2016,6680,-13404,-19646,24344,-3730,5688,-4503,15210,1042,1019,438,0,0,0,199,206,135,2,1
Mon Sep 26 15:19:27 2016,6690,-11874,-13016,5394,-5085,2882,-2821,15252,1046,1030,437,0,0,0,199,206,135,2,1
Mon Sep 26 15:19:27 2016,6700,-5596,5742,2918,-3764,1524,-2587,15198,1047,1033,438,0,0,0,199,206,134,2,1
Mon Sep 26 15:19:27 2016,6710,-7034,-8944,16414,-2699,463,-2182,15207,1046,1032,446,0,0,0,199,206,136,2,1
Mon Sep 26 15:19:27 2016,6719,-6828,2178,7292,-1654,-362,-1245,15179,1046,1034,442,0,0,0,199,206,135,2,1
Mon Sep 26 15:19:28 2016,6730,-5394,618,6896,-1048,157,-704,15157,1045,1034,438,0,0,0,199,206,136,2,1
Mon Sep 26 15:19:28 2016,6739,-5568,432,7084,-665,-33,-684,15139,1044,1034,446,0,0,0,199,206,135,2,1
Mon Sep 26 15:19:28 2016,6749,-4826,946,7258,-417,-73,-608,15165,1043,1035,438,0,0,0,199,206,135,2,1
Mon Sep 26 15:19:28 2016,6760,-4368,518,7036,-301,-92,-488,15141,1043,1036,447,0,0,0,199,206,136,2,1
Mon Sep 26 15:19:28 2016,6770,-4332,268,7144,-262,97,-428,15159,1042,1036,441,0,0,0,199,206,136,2,1
Mon Sep 26 15:19:28 2016,6780,-4298,742,6656,-255,54,-429,15211,1043,1036,440,0,0,0,199,206,135,2,1
Mon Sep 26 15:19:28 2016,6789,-4518,396,6880,-171,120,-374,15158,1041,1035,437,0,0,0,199,206,136,2,1
Mon Sep 26 15:19:28 2016,6800,-4586,-46,7030,-133,214,-269,15119,1042,1035,444,0,0,0,199,206,136,2,1
Mon Sep 26 15:19:28 2016,6810,-6194,72,7278,-237,192,-286,15143,1041,1033,445,0,0,0,199,206,136,2,1
Mon Sep 26 15:19:28 2016,6820,-5058,1136,6762,-122,397,-107,15133,1040,1033,438,0,0,0,199,206,135,2,1
Mon Sep 26 15:19:28 2016,6830,-5144,710,6566,4,237,-171,15176,1039,1031,446,0,0,0,199,206,136,2,1
Mon Sep 26 15:19:28 2016,6840,-4620,532,6614,-6,251,-113,15134,1039,1030,437,0,0,0,199,206,135,2,1
Mon Sep 26 15:19:28 2016,6850,-4428,626,6694,16,159,-100,15204,1039,1029,439,0,0,0,199,206,135,2,1
Mon Sep 26 15:19:28 2016,6860,-4458,520,6648,-1,113,-101,15208,1039,1028,438,0,0,0,199,206,135,2,1
Mon Sep 26 15:19:28 2016,6870,-4464,532,6644,-3,42,-98,15210,1037,1028,446,0,0,0,199,206,136,2,1
Mon Sep 26 15:19:28 2016,6880,-4422,428,6736,-25,2,-105,15226,1038,1026,440,0,0,0,199,206,135,2,1
Mon Sep 26 15:19:28 2016,6890,-4394,498,6744,-31,-33,-97,15182,1037,1024,439,0,0,0,199,206,135,2,1
Mon Sep 26 15:19:28 2016,6900,-4438,500,6696,-29,-44,-83,15219,1037,1023,438,0,0,0,199,206,136,2,1
Mon Sep 26 15:19:28 2016,6910,-4422,498,6730,-27,-102,-74,15219,1036,1022,437,0,0,0,199,206,135,2,1
Mon Sep 26 15:19:28 2016,6920,-4266,532,6756,-28,-121,-86,15184,1036,1021,439,0,0,0,199,206,135,2,1
Mon Sep 26 15:19:28 2016,6930,-4234,578,6814,8,-103,-105,15230,1035,1019,438,0,0,0,199,206,136,2,1
Mon Sep 26 15:19:28 2016,6940,-4240,538,6816,38,-71,-120,15180,1035,1018,446,0,0,0,199,206,135,2,1
Mon Sep 26 15:19:28 2016,6949,-4444,500,6280,100,-82,-107,15224,1034,1018,438,0,0,0,199,206,136,2,1
Mon Sep 26 15:19:28 2016,6959,-4352,458,6708,70,-70,-114,15213,1035,1017,436,0,0,0,199,206,135,2,1
Mon Sep 26 15:19:28 2016,6969,-4356,436,6742,50,-56,-89,15195,1033,1016,438,0,0,0,199,206,136,2,1
Mon Sep 26 15:19:28 2016,6979,-4324,408,6842,66,-60,-72,15153,1034,1014,438,0,0,0,199,206,135,2,1
Mon Sep 26 15:19:28 2016,6989,-4274,440,6888,45,-39,-64,15139,1033,1012,443,0,0,0,199,206,136,2,1
Mon Sep 26 15:19:28 2016,7000,-4290,560,6856,42,-47,-70,15131,1033,1011,440,0,0,0,199,206,135,2,1
Mon Sep 26 15:19:28 2016,7010,-4350,502,6872,46,-54,-85,15142,1033,1010,445,0,0,0,199,206,135,2,1
Mon Sep 26 15:19:28 2016,7020,-4358,352,6844,24,-56,-69,15161,1032,1009,444,0,0,0,199,206,135,2,1
Mon Sep 26 15:19:28 2016,7029,-4392,392,6818,17,-50,-44,15173,1033,1009,438,0,0,0,199,206,135,2,1
Mon Sep 26 15:19:28 2016,7039,-4354,364,6906,4,-38,-28,15131,1032,1008,441,0,0,0,199,206,136,2,1
Mon Sep 26 15:19:28 2016,7050,-4308,458,6844,-6,-18,-15,15149,1032,1007,438,0,0,0,199,206,136,2,1
Mon Sep 26 15:19:28 2016,7059,-4318,506,6916,-1,0,9,15137,1031,1005,444,0,0,0,199,206,135,2,1
Mon Sep 26 15:19:28 2016,7070,-4346,496,6814,-1,27,6,15170,1031,1005,444,0,0,0,199,206,136,2,1
Mon Sep 26 15:19:28 2016,7080,-4200,530,6758,9,29,-1,15161,1032,1003,444,0,0,0,199,206,136,2,1
Mon Sep 26 15:19:28 2016,7090,-4208,570,6844,57,79,-2,15146,1031,1002,437,0,0,0,199,206,136,2,1
Mon Sep 26 15:19:28 2016,7100,-4302,598,6852,51,96,-15,15177,1032,1000,441,0,0,0,199,206,136,2,1
Mon Sep 26 15:19:28 2016,7110,-4340,560,6780,66,106,-28,15209,1031,998,442,0,0,0,199,206,136,2,1
Mon Sep 26 15:19:28 2016,7120,-4418,470,6738,61,83,-23,15185,1030,995,439,0,0,0,199,206,136,2,1
Mon Sep 26 15:19:28 2016,7130,-4462,248,6648,37,-11,17,15218,1030,995,440,0,0,0,199,206,136,2,1
Mon Sep 26 15:19:28 2016,7140,-4342,282,6840,-10,-32,61,15197,1030,993,440,0,0,0,199,206,136,2,1
Mon Sep 26 15:19:28 2016,7150,-4362,704,6828,-15,-24,75,15200,1029,994,438,0,0,0,199,206,136,2,1
Mon Sep 26 15:19:28 2016,7160,-4442,514,6834,4,-21,49,15164,1029,992,438,0,0,0,199,206,136,2,1
Mon Sep 26 15:19:28 2016,7170,-4476,428,6878,-7,-56,76,15190,1029,992,440,0,0,0,199,206,136,2,1
Mon Sep 26 15:19:28 2016,7180,-4442,496,6716,-6,-102,81,15198,1029,989,440,0,0,0,199,206,136,2,1
Mon Sep 26 15:19:28 2016,7190,-4348,382,6812,-12,-138,89,15197,1028,990,439,0,0,0,199,206,135,2,1
Mon Sep 26 15:19:28 2016,7200,-4210,684,6722,-36,-159,58,15195,1028,989,439,0,0,0,199,206,136,2,1
Mon Sep 26 15:19:28 2016,7210,-3812,-14,8430,-75,-80,-2,15206,1028,989,440,0,0,0,199,206,136,2,1
Mon Sep 26 15:19:28 2016,7219,-4186,536,6794,-4,-78,-34,15214,1027,987,441,0,0,0,199,206,136,2,1
Mon Sep 26 15:19:28 2016,7229,-4172,516,6750,1,-73,-44,15201,1028,988,438,0,0,0,199,206,136,2,1
Mon Sep 26 15:19:28 2016,7240,-4052,678,6822,26,6,-54,15118,1026,986,438,0,0,0,199,206,136,2,1
Mon Sep 26 15:19:28 2016,7250,-4208,388,6866,52,82,-63,15139,1026,987,438,0,0,0,199,206,136,2,1
Mon Sep 26 15:19:28 2016,7260,-4138,460,6904,48,118,-48,15133,1025,984,437,0,0,0,199,206,136,2,1
Mon Sep 26 15:19:28 2016,7270,-4314,474,6808,53,144,-37,15163,1026,986,441,0,0,0,199,206,136,2,1
Mon Sep 26 15:19:28 2016,7280,-4354,414,6792,55,138,-34,15150,1026,984,445,0,0,0,199,206,136,2,1
Mon Sep 26 15:19:28 2016,7289,-4416,428,6760,54,99,-8,15158,1025,985,438,0,0,0,199,206,136,2,1
Mon Sep 26 15:19:28 2016,7300,-4332,542,6768,28,62,-17,15145,1025,983,438,0,0,0,199,206,136,2,1
Mon Sep 26 15:19:28 2016,7309,-4380,638,6794,39,13,-33,15163,1025,985,437,0,0,0,199,206,135,2,1
Mon Sep 26 15:19:28 2016,7320,-4350,506,6790,17,-13,-47,15137,1024,983,439,0,0,0,199,206,136,2,1
Mon Sep 26 15:19:28 2016,7330,-4378,528,6786,14,-54,-57,15135,1025,984,446,0,0,0,199,206,135,2,1
Mon Sep 26 15:19:28 2016,7340,-4222,458,6702,29,-65,-48,15142,1024,982,436,0,0,0,199,206,136,2,1
Mon Sep 26 15:19:28 2016,7349,-4156,504,6734,52,-38,-45,15181,1024,983,441,0,0,0,199,206,135,2,1
Mon Sep 26 15:19:28 2016,7360,-4184,472,6914,59,34,-52,15166,1023,982,438,0,0,0,199,206,136,2,1
Mon Sep 26 15:19:28 2016,7370,-4258,396,6782,49,89,-41,15184,1023,983,439,0,0,0,199,206,136,2,1
Mon Sep 26 15:19:28 2016,7380,-4252,518,6972,41,88,-49,15190,1022,982,438,0,0,0,199,206,136,2,1
Mon Sep 26 15:19:28 2016,7389,-4220,452,7054,50,99,-51,15199,1024,981,440,0,0,0,199,206,135,2,1
Mon Sep 26 15:19:28 2016,7400,-4324,506,6806,23,91,-44,15171,1022,982,440,0,0,0,199,206,136,2,1
Mon Sep 26 15:19:28 2016,7410,-4312,520,6740,9,68,-53,15234,1023,981,438,0,0,0,199,206,135,2,1
Mon Sep 26 15:19:28 2016,7420,-4326,588,6856,35,57,-64,15184,1022,982,438,0,0,0,199,206,136,2,1
Mon Sep 26 15:19:28 2016,7430,-4274,536,6788,32,55,-76,15187,1023,981,439,0,0,0,199,206,135,2,1
Mon Sep 26 15:19:28 2016,7440,-4332,502,6798,31,38,-79,15166,1022,981,438,0,0,0,199,206,136,2,1
Mon Sep 26 15:19:28 2016,7451,-4300,518,6824,29,33,-88,15173,1022,980,438,0,0,0,199,206,136,2,1
Mon Sep 26 15:19:28 2016,7460,-4204,546,6822,43,26,-83,15220,1022,981,439,0,0,0,199,206,136,2,1
Mon Sep 26 15:19:28 2016,7470,-4184,482,6716,39,48,-98,15197,1022,980,440,0,0,0,199,206,136,2,1
Mon Sep 26 15:19:28 2016,7481,-4240,486,6986,59,71,-94,15175,1022,980,439,0,0,0,199,206,136,2,1
Mon Sep 26 15:19:28 2016,7490,-4302,468,6924,55,136,-89,15152,1022,980,437,0,0,0,199,206,136,2,1
Mon Sep 26 15:19:28 2016,7500,-4348,382,6794,56,139,-88,15134,1022,980,447,0,0,0,199,206,135,2,1
Mon Sep 26 15:19:28 2016,7510,-4348,422,6762,49,151,-72,15132,1021,979,436,0,0,0,199,206,135,2,1
Mon Sep 26 15:19:28 2016,7520,-4374,448,6762,40,111,-61,15128,1022,979,439,0,0,0,199,206,135,2,1
Mon Sep 26 15:19:28 2016,7530,-4366,492,6826,35,86,-41,15124,1021,978,438,0,0,0,199,206,135,2,1
Mon Sep 26 15:19:28 2016,7540,-4410,500,6792,43,82,-54,15137,1022,979,445,0,0,0,199,206,135,2,1
Mon Sep 26 15:19:28 2016,7550,-4412,494,6756,38,69,-51,15141,1021,979,438,0,0,0,199,206,135,2,1
Mon Sep 26 15:19:28 2016,7560,-4404,460,6686,27,33,-58,15135,1021,979,440,0,0,0,199,206,135,2,1
Mon Sep 26 15:19:28 2016,7569,-4366,476,6810,26,14,-49,15126,1022,978,437,0,0,0,199,206,135,2,1
Mon Sep 26 15:19:28 2016,7580,-4362,506,6800,38,-6,-36,15140,1021,978,437,0,0,0,199,206,135,2,1
Mon Sep 26 15:19:28 2016,7590,-4364,506,6796,39,-23,-45,15168,1020,977,438,0,0,0,199,206,135,2,1
Mon Sep 26 15:19:28 2016,7600,-4280,578,6732,28,-7,-56,15179,1021,978,438,0,0,0,199,206,135,2,1
Mon Sep 26 15:19:28 2016,7609,-4336,506,6850,27,-3,-62,15206,1021,977,440,0,0,0,199,206,135,2,1
Mon Sep 26 15:19:28 2016,7619,-4350,432,6816,42,4,-61,15182,1020,978,438,0,0,0,199,206,135,2,1
Mon Sep 26 15:19:28 2016,7629,-4396,474,6774,36,-8,-57,15191,1021,978,437,0,0,0,199,206,135,2,1
Mon Sep 26 15:19:28 2016,7639,-4364,484,6726,22,-40,-53,15185,1020,977,441,0,0,0,199,206,135,2,1
Mon Sep 26 15:19:28 2016,7649,-4370,488,6772,24,-86,-49,15197,1020,978,439,0,0,0,199,206,135,2,1
Mon Sep 26 15:19:28 2016,7660,-4416,504,6692,20,-135,-52,15179,1020,978,448,0,0,0,199,206,135,2,1
Mon Sep 26 15:19:28 2016,7669,-4408,556,6748,25,-178,-47,15186,1019,977,438,0,0,0,199,206,135,2,1
Mon Sep 26 15:19:28 2016,7680,-4350,524,6768,50,-247,-53,15190,1021,977,442,0,0,0,199,206,135,2,1
Mon Sep 26 15:19:28 2016,7689,-4322,492,6752,46,-258,-59,15191,1019,976,437,0,0,0,199,206,135,2,1
Mon Sep 26 15:19:28 2016,7699,-4300,474,6748,72,-294,-32,15212,1021,977,439,0,0,0,199,206,135,2,1
Mon Sep 26 15:19:28 2016,7709,-4318,388,6814,70,-294,-25,15185,1020,976,447,0,0,0,199,206,135,2,1
Mon Sep 26 15:19:28 2016,7720,-4234,566,6902,81,-274,3,15178,1020,976,446,0,0,0,199,206,135,2,1
Mon Sep 26 15:19:29 2016,7730,-4136,472,6934,90,-247,-1,15133,1018,976,445,0,0,0,199,206,134,2,1
Mon Sep 26 15:19:29 2016,7740,-4218,528,6712,68,-183,-22,15136,1019,976,438,0,0,0,199,206,135,2,1
Mon Sep 26 15:19:29 2016,7749,-4264,468,6960,100,-181,-5,15143,1018,976,442,0,0,0,199,206,135,2,1
Mon Sep 26 15:19:29 2016,7759,-4272,444,6788,54,-129,-7,15154,1019,976,436,0,0,0,199,206,135,2,1
Mon Sep 26 15:19:29 2016,7769,-4274,476,6866,61,-118,10,15142,1019,976,442,0,0,0,199,206,135,2,1
Mon Sep 26 15:19:29 2016,7780,-4230,528,6886,79,-125,26,15173,1019,975,448,0,0,0,199,206,135,2,1
Mon Sep 26 15:19:29 2016,7789,-4238,494,6864,73,-127,28,15137,1019,976,437,0,0,0,199,206,135,2,1
Mon Sep 26 15:19:29 2016,7800,-4100,580,6888,73,-122,19,15157,1019,975,445,0,0,0,199,206,135,2,1
Mon Sep 26 15:19:29 2016,7809,-4170,576,6898,82,-115,4,15137,1019,976,438,0,0,0,199,206,135,2,1
Mon Sep 26 15:19:29 2016,7819,-4200,556,6916,85,-110,14,15150,1019,974,447,0,0,0,199,206,135,2,1
Mon Sep 26 15:19:29 2016,7830,-4220,544,6844,99,-108,19,15148,1020,975,440,0,0,0,199,206,135,2,1
Mon Sep 26 15:19:29 2016,7840,-4176,530,6898,100,-107,29,15118,1019,975,437,0,0,0,199,206,135,2,1
Mon Sep 26 15:19:29 2016,7849,-4156,574,6920,79,-118,20,15213,1019,976,438,0,0,0,199,206,135,2,1
Mon Sep 26 15:19:29 2016,7859,-4094,590,6890,77,-80,1,15200,1019,975,438,0,0,0,199,206,135,2,1
Mon Sep 26 15:19:29 2016,7870,-4156,520,6932,80,-65,-4,15207,1020,976,437,0,0,0,199,206,135,2,1
Mon Sep 26 15:19:29 2016,7880,-4208,530,6880,84,-66,0,15216,1019,973,440,0,0,0,199,206,135,2,1
Mon Sep 26 15:19:29 2016,7890,-4158,538,6924,79,-68,9,15208,1019,974,438,0,0,0,199,206,135,2,1
Mon Sep 26 15:19:29 2016,7900,-4120,600,6942,91,-51,9,15177,1018,973,445,0,0,0,199,206,135,2,1
Mon Sep 26 15:19:29 2016,7909,-4104,586,6892,86,-38,-1,15185,1019,974,438,0,0,0,199,206,135,2,1
Mon Sep 26 15:19:29 2016,7919,-4156,520,6876,77,-35,-12,15185,1020,974,439,0,0,0,199,206,135,2,1
Mon Sep 26 15:19:29 2016,7929,-4146,542,6934,60,-31,-22,15203,1019,974,442,0,0,0,199,206,135,2,1
Mon Sep 26 15:19:29 2016,7939,-4148,558,6904,61,-36,-19,15210,1018,972,438,0,0,0,199,206,135,2,1
Mon Sep 26 15:19:29 2016,7950,-4110,538,6886,57,-33,-32,15199,1019,974,438,0,0,0,199,206,135,2,1
Mon Sep 26 15:19:29 2016,7960,-4146,552,6914,53,-35,-33,15173,1018,971,439,0,0,0,199,206,136,2,1
Mon Sep 26 15:19:29 2016,7970,-4146,574,6852,62,-31,-17,15260,1019,974,442,0,0,0,199,206,135,2,1
Mon Sep 26 15:19:29 2016,7980,-4152,582,6920,55,-22,-25,15219,1017,971,441,0,0,0,199,206,136,2,1
Mon Sep 26 15:19:29 2016,7989,-4118,616,6940,65,-29,-20,15204,1018,973,448,0,0,0,199,206,135,2,1
Mon Sep 26 15:19:29 2016,8000,-4142,588,6896,68,-17,-43,15209,1017,973,441,0,0,0,199,206,135,2,1
Mon Sep 26 15:19:29 2016,8010,-4106,528,6820,60,-24,-29,15222,1018,973,442,0,0,0,199,206,135,2,1
Mon Sep 26 15:19:29 2016,8020,-4154,586,6890,66,-14,-36,15237,1017,971,440,0,0,0,199,206,135,2,1
Mon Sep 26 15:19:29 2016,8030,-4160,606,6934,73,-15,-35,15207,1018,972,439,0,0,0,199,206,135,2,1
Mon Sep 26 15:19:29 2016,8040,-4172,580,6898,74,-10,-31,15211,1017,971,444,0,0,0,199,206,135,2,1
Mon Sep 26 15:19:29 2016,8050,-4154,626,6844,69,0,-43,15153,1017,972,437,0,0,0,199,206,135,2,1
Mon Sep 26 15:19:29 2016,8060,-4162,612,6888,58,-12,-47,15180,1017,972,438,0,0,0,199,206,135,2,1
Mon Sep 26 15:19:29 2016,8070,-4150,584,6856,63,-14,-50,15176,1017,972,438,0,0,0,199,206,135,2,1
Mon Sep 26 15:19:29 2016,8080,-4192,520,6916,50,-31,-56,15177,1016,972,438,0,0,0,199,206,135,2,1
Mon Sep 26 15:19:29 2016,8089,-4174,576,6916,56,-42,-46,15168,1017,972,440,0,0,0,199,206,135,2,1
Mon Sep 26 15:19:29 2016,8100,-4144,594,6952,51,-58,-48,15211,1016,972,441,0,0,0,199,206,136,2,1
Mon Sep 26 15:19:29 2016,8109,-4148,596,6916,52,-56,-48,15249,1017,972,441,0,0,0,199,206,136,2,1
Mon Sep 26 15:19:29 2016,8120,-4100,612,6910,55,-51,-51,15240,1017,972,442,0,0,0,199,206,136,2,1
Mon Sep 26 15:19:29 2016,8130,-4084,540,6980,48,-14,-52,15225,1017,971,442,0,0,0,199,206,136,2,1
Mon Sep 26 15:19:29 2016,8140,-4130,572,7010,45,3,-38,15242,1017,972,439,0,0,0,199,206,136,2,1
Mon Sep 26 15:19:29 2016,8150,-4116,552,6894,45,25,-41,15231,1018,972,442,0,0,0,199,206,136,2,1
Mon Sep 26 15:19:29 2016,8160,-4102,588,6904,56,27,-33,15212,1016,972,436,0,0,0,199,206,136,2,1
Mon Sep 26 15:19:29 2016,8169,-4116,614,6902,45,46,-45,15216,1017,972,439,0,0,0,199,206,135,2,1
Mon Sep 26 15:19:29 2016,8180,-4136,608,6912,51,47,-43,15208,1017,972,441,0,0,0,199,206,136,2,1
Mon Sep 26 15:19:29 2016,8190,-4140,618,6952,52,52,-43,15259,1017,971,440,0,0,0,199,206,135,2,1
Mon Sep 26 15:19:29 2016,8200,-4136,584,6844,45,67,-44,15241,1016,972,442,0,0,0,199,206,136,2,1
Mon Sep 26 15:19:29 2016,8210,-4134,592,6884,58,59,-50,15244,1016,972,437,0,0,0,199,206,135,2,1
Mon Sep 26 15:19:29 2016,8220,-4114,614,6888,57,64,-40,15239,1017,972,438,0,0,0,199,206,135,2,1
Mon Sep 26 15:19:29 2016,8230,-4120,674,6878,58,72,-44,15242,1016,971,446,0,0,0,199,206,135,2,1
Mon Sep 26 15:19:29 2016,8240,-4126,594,6926,59,87,-52,15152,1015,972,439,0,0,0,199,206,136,2,1
Mon Sep 26 15:19:29 2016,8249,-4108,608,6928,53,84,-67,15188,1016,971,438,0,0,0,199,206,135,2,1
Mon Sep 26 15:19:29 2016,8260,-4120,574,7020,41,110,-66,15211,1017,972,444,0,0,0,199,206,136,2,1
Mon Sep 26 15:19:29 2016,8270,-4188,624,6870,47,125,-59,15182,1016,970,447,0,0,0,199,206,135,2,1
Mon Sep 26 15:19:29 2016,8280,-4196,564,6912,34,115,-59,15171,1017,971,439,0,0,0,199,206,136,2,1
Mon Sep 26 15:19:29 2016,8290,-4198,610,6894,38,113,-58,15195,1016,971,438,0,0,0,199,206,135,2,1
Mon Sep 26 15:19:29 2016,8300,-4122,658,6876,35,93,-57,15187,1017,971,445,0,0,0,199,206,136,2,1
Mon Sep 26 15:19:29 2016,8310,-4122,624,6900,31,103,-65,15189,1016,971,444,0,0,0,199,206,135,2,1
Mon Sep 26 15:19:29 2016,8320,-4144,594,6930,27,101,-78,15259,1017,971,437,0,0,0,199,206,136,2,1
Mon Sep 26 15:19:29 2016,8330,-4176,588,6944,30,118,-82,15195,1016,971,442,0,0,0,199,206,135,2,1
Mon Sep 26 15:19:29 2016,8339,-4212,554,6894,25,104,-70,15175,1017,971,438,0,0,0,199,206,136,2,1
Mon Sep 26 15:19:29 2016,8349,-4216,574,6862,31,105,-70,15251,1016,971,437,0,0,0,199,206,136,2,1
Mon Sep 26 15:19:29 2016,8359,-4134,572,6840,35,83,-60,15229,1018,971,438,0,0,0,199,206,135,2,1
Mon Sep 26 15:19:29 2016,8369,-4168,618,6872,27,90,-75,15244,1017,971,446,0,0,0,199,206,135,2,1
Mon Sep 26 15:19:29 2016,8380,-4160,628,6950,10,109,-83,15258,1017,971,446,0,0,0,199,206,135,2,1
Mon Sep 26 15:19:29 2016,8389,-4210,614,6886,14,112,-92,15242,1016,971,438,0,0,0,199,206,135,2,1
Mon Sep 26 15:19:29 2016,8400,-4238,550,6880,14,123,-79,15250,1017,970,439,0,0,0,199,206,135,2,1
Mon Sep 26 15:19:29 2016,8410,-4246,508,6836,23,105,-73,15255,1017,970,442,0,0,0,199,206,136,2,1
Mon Sep 26 15:19:29 2016,8419,-4200,588,6900,15,102,-59,15249,1016,970,440,0,0,0,199,206,135,2,1
Mon Sep 26 15:19:29 2016,8430,-4206,676,6836,23,88,-73,15240,1017,971,447,0,0,0,199,206,135,2,1
Mon Sep 26 15:19:29 2016,8439,-4274,580,6828,-6,82,-86,15247,1017,971,438,0,0,0,199,206,135,2,1
Mon Sep 26 15:19:29 2016,8449,-4268,550,6920,-4,78,-83,15280,1016,969,438,0,0,0,199,206,135,2,1
Mon Sep 26 15:19:29 2016,8460,-4252,582,6822,18,71,-70,15284,1017,970,439,0,0,0,199,206,135,2,1
Mon Sep 26 15:19:29 2016,8469,-4286,584,6852,12,48,-71,15327,1017,971,437,0,0,0,199,206,136,2,1
Mon Sep 26 15:19:29 2016,8480,-4250,562,6848,23,36,-63,15243,1017,971,441,0,0,0,199,206,136,2,1
Mon Sep 26 15:19:29 2016,8490,-4204,618,6836,26,25,-62,15211,1016,970,437,0,0,0,199,206,135,2,1
Mon Sep 26 15:19:29 2016,8500,-4208,586,6902,21,50,-75,15192,1015,970,440,0,0,0,199,206,136,2,1
Mon Sep 26 15:19:29 2016,8510,-4226,580,6874,22,64,-78,15201,1015,970,455,0,0,0,199,206,136,2,1
Mon Sep 26 15:19:29 2016,8519,-4294,516,6830,31,79,-74,15177,1016,970,436,0,0,0,199,206,135,2,1
Mon Sep 26 15:19:29 2016,8530,-4286,512,6786,38,77,-72,15206,1016,969,437,0,0,0,199,206,135,2,1
Mon Sep 26 15:19:29 2016,8539,-4282,582,6878,28,71,-53,15203,1015,970,436,0,0,0,199,206,136,2,1
Mon Sep 26 15:19:29 2016,8549,-4262,554,6838,32,53,-49,15192,1016,970,447,0,0,0,199,206,135,2,1
Mon Sep 26 15:19:29 2016,8560,-4260,598,6792,27,54,-58,15163,1015,970,446,0,0,0,199,206,135,2,1
Mon Sep 26 15:19:29 2016,8569,-4286,582,6812,29,47,-64,15191,1014,970,445,0,0,0,199,206,135,2,1
Mon Sep 26 15:19:29 2016,8580,-4256,564,6834,17,31,-59,15196,1016,969,445,0,0,0,199,206,135,2,1
Mon Sep 26 15:19:29 2016,8590,-4272,576,6788,17,28,-63,15212,1014,970,439,0,0,0,199,206,135,2,1
Mon Sep 26 15:19:29 2016,8600,-4252,544,6812,7,-1,-53,15207,1016,970,438,0,0,0,199,206,135,2,1

